timestamp,ax,ay,az,gx,gy,gz
0.000000,-1.358275452,8.56967926,4.153113556,0.1597754657,0.3222278059,0.05287266523
0.009998,-1.407672729,8.49827774,4.306993561,0.1539300829,0.3594705164,0.05936172232
0.019997,-1.414708099,8.486003265,4.454736328,0.1233744472,0.3217280805,0.06770795584
0.029995,-1.451381836,8.538394318,4.568350067,0.07682558149,0.1995936334,0.06672818214
0.039993,-1.372196503,8.761879578,4.582570496,0.05730519071,0.1004343033,0.0533106029
0.049992,-1.404379578,8.667126617,4.450844421,0.05211149156,0.01594285667,0.04340683669
0.059990,-1.376687164,8.586743774,4.476141815,0.04954273254,-0.03336371109,0.04275049269
0.069989,-1.347797241,8.453670502,4.522545319,0.04000249133,-0.05832525343,0.03219292313
0.079987,-1.408121796,8.413853302,4.537214813,0.02967191301,-0.06770850718,0.02091403119
0.089985,-1.367705841,8.468489685,4.517006836,0.03155023977,-0.05119797215,0.009229412302
0.099984,-1.330133972,8.473429413,4.489913177,0.03899285942,-0.04184481502,0.01500303857
0.109982,-1.267115021,8.46789093,4.53407135,0.0422866568,-0.04780097678,0.01804303564
0.119981,-1.28358078,8.501121826,4.549489288,0.03952224553,-0.06914781034,0.02332226187
0.129979,-1.358724518,8.553213501,4.553381195,0.03637785092,-0.08234776556,0.02185698971
0.139977,-1.405876465,8.638835449,4.540208588,0.04691772908,-0.1167574003,0.01594598219
0.149976,-1.490001526,8.534053345,4.569248199,0.03859774768,-0.07355879247,0.03042905219
0.159974,-1.393751678,8.728498993,4.482428741,0.04115507007,-0.05674160272,0.03478074819
0.169973,-1.43566452,8.725205841,4.478985901,0.04537431523,-0.03877086192,0.03353917971
0.179971,-1.499431915,8.644224243,4.431684265,0.04241066799,-0.03962493688,0.03030669503
0.189969,-1.445843353,8.701255646,4.485123138,0.03309226781,-0.04685941339,0.02011877298
0.199968,-1.422491913,8.748257904,4.446952515,0.04199326783,-0.04953482375,0.01150224265
0.209966,-1.383872223,8.741222534,4.382736053,0.05826731026,-0.03087591752,0.0028349848
0.219965,-1.326242065,8.709787903,4.374652863,0.07458972931,-0.01967373304,0.005022042897
0.229963,-1.302740936,8.607849884,4.464615784,0.09150533378,-0.03244838491,0.003085125936
0.239961,-1.284329224,8.498427429,4.576433258,0.1007819772,-0.06940373778,0.009212220088
0.249960,-1.242865448,8.431217194,4.689597931,0.1085730493,-0.1441440284,0.01385171339
0.259958,-1.177900543,8.385562134,4.850962372,0.09280703217,-0.1783877313,0.03325109929
0.269957,-1.175206146,8.385262756,4.875211945,0.1223207116,-0.2563011646,0.02591755241
0.279955,-0.988843689,8.339907074,5.01262619,0.1342021376,-0.2629220784,0.002416445641
0.289953,-1.376836853,7.886799316,4.937033386,0.1606918126,-0.1979750246,-0.03098491952
0.299955,-1.484762421,7.965086517,4.788093109,0.209704265,-0.2000469714,-0.03637610003
0.309953,-1.166823578,7.959098969,4.948709106,0.2294079363,-0.2187349051,-0.006810749415
0.319952,-1.325643311,7.520361328,5.037624207,0.2751502693,-0.2277662009,0.06457857788
0.329950,-1.396595764,7.000941467,4.789440308,0.3402040899,-0.0418504104,0.112885125
0.339949,-1.402583313,7.054829407,4.109554138,0.4044568837,0.08273866028,0.1394272298
0.349947,-1.532662811,7.366780701,4.171225891,0.4701874256,0.1316784918,0.1534322649
0.359945,-1.512454834,7.246281281,4.235592041,0.5365189314,0.149684146,0.1732194275
0.369944,-1.481169891,6.798262939,4.212390289,0.5939438343,0.1625959426,0.170096606
0.379942,-1.41934845,6.591243439,4.241280212,0.6086755991,0.1384176463,0.1782898456
0.389941,-1.366208954,6.973249054,4.372706909,0.5860294104,0.07525357604,0.190641582
0.399939,-1.309476929,7.699389038,4.383484497,0.6106642485,0.06620655209,0.1263624132
0.409937,-1.130000153,8.024662628,4.129313049,0.5780572891,0.07722404599,0.1522299647
0.419936,-1.085093536,8.150700531,4.15026947,0.4695371985,-0.1581529081,0.2299144268
0.429934,-0.8099656677,8.883726196,4.652624817,0.4364189208,-0.5165195465,0.2641381919
0.439933,-0.7816744995,8.705596619,4.451293488,0.425442338,-0.7659965158,0.3188390732
0.449931,-0.7602690125,9.12667099,3.936513977,0.4971122742,-0.886064589,0.3839323223
0.459929,-0.707428894,9.300758972,3.665128326,0.5929888487,-0.9383006692,0.4263494313
0.469928,-0.7677534485,8.767268372,3.673810272,0.7366887927,-0.8172621131,0.4480390251
0.479926,-0.7316784668,8.463849335,3.261268158,0.8453671336,-0.4152969718,0.4562001526
0.489925,-0.556842041,8.860524445,2.688409424,0.9104118943,0.01456945855,0.4203273654
0.499923,-0.4388873291,9.038204956,2.661615143,0.8742343783,0.3282750547,0.4244913459
0.509921,-0.3122506714,9.390123138,2.809058533,0.818667531,0.3892121911,0.5070844889
0.519920,-0.1097218323,9.861193542,3.30782135,0.7794072628,0.2513067722,0.5924028158
0.529918,0.03248245239,9.728419647,3.528462524,0.7221772671,0.02939009666,0.6554797888
0.539917,0.1091230774,9.084758148,3.573668518,0.6657192707,-0.2544848919,0.6513140798
0.549915,0.03353027344,8.521629181,3.670068054,0.6916816235,-0.6185872555,0.6139510274
0.559913,0.09295669556,8.280630341,3.675157471,0.8117542267,-0.9862091541,0.6886675954
0.569912,0.2432441711,9.86493576,3.433559875,1.048311114,-1.016206264,0.8900278807
0.579910,0.06466552734,12.30486191,2.689606934,1.035951138,-0.8116485476,1.075918078
0.589909,-0.02619552612,14.49450851,2.944227448,0.7474338412,-0.5372742414,0.9955399036
0.599907,-0.406255188,15.45625854,3.669618988,0.4539638758,-0.4797560871,0.4341886938
0.609905,-1.277293854,13.43411362,4.529131622,0.3461146653,-0.579729557,-0.003555363975
0.619904,-1.715881805,8.553063812,4.848717041,0.3292486668,-0.4444270134,0.1758137494
0.629902,-1.551373901,6.273903351,4.18544632,0.3791280687,-0.2314356416,0.1723103672
0.639901,-1.419647827,7.030280457,3.727997589,0.3485634923,-0.1131317839,0.04892427474
0.649899,-1.374142456,8.766370239,3.739673309,0.2923175097,-0.1862432659,0.05630682036
0.659897,-1.686243439,10.20457947,4.023632812,0.2137522101,-0.4072306454,0.1471655518
0.669896,-2.216590576,9.526040497,4.267775116,0.1342294216,-0.606320858,0.1343189925
0.679894,-2.643652496,8.49603241,4.17137558,0.09381327033,-0.7455625534,0.03848491237
0.689893,-2.685565338,8.407416687,4.020339661,0.07586489618,-0.7932938933,-0.05010567233
0.699891,-2.522254944,8.42463089,3.847898254,0.07042045146,-0.8026276231,-0.1265739799
0.709889,-2.192490692,8.415499878,3.761078796,0.07054615021,-0.8788001537,-0.1948262751
0.719888,-1.84057251,8.418044586,3.898343353,0.0623983629,-1.051191926,-0.2569681406
0.729886,-1.599573669,8.481063538,4.148473206,0.03849249333,-1.254896045,-0.327123791
0.739885,-1.481469269,8.693022766,4.473896484,-0.03198905289,-1.419655204,-0.4037730694
0.749883,-1.609902191,9.256151733,4.709805908,-0.1141094938,-1.503385544,-0.4879976809
0.759882,-1.790127411,9.773475952,4.804259491,-0.1928545684,-1.51940155,-0.5496799946
0.769880,-2.149380341,10.30487091,4.904850311,-0.1917477548,-1.396417499,-0.5123621821
0.779878,-2.749033356,10.4324057,4.99511261,-0.1995595694,-1.183924675,-0.4776625037
0.789877,-3.565435638,9.673184509,5.500162354,-0.2105006278,-1.195825577,-0.5954988599
0.799875,-4.097429352,8.49947525,6.403683472,-0.242512688,-1.41164887,-0.7852107286
0.809874,-4.601880341,8.286168823,6.968608704,-0.3739593923,-1.723749757,-0.8952679634
0.819872,-5.135969696,9.197324066,7.192393341,-0.4870404899,-2.0630548,-0.9759435654
0.829870,-5.563181305,10.15667908,6.555018768,-0.470377624,-2.33235383,-1.045874357
0.839869,-5.493725739,11.02637054,4.980892181,-0.4258157313,-2.419864655,-1.097852707
0.849867,-4.369862823,11.74831924,3.270997925,-0.3529212773,-2.382055759,-1.069167256
0.859866,-2.310146027,12.18481155,1.772015076,-0.2677373588,-2.344089508,-0.9466613531
0.869864,-0.5093907166,12.27687012,0.7167095947,-0.249522388,-2.503171444,-0.7675725818
0.879862,0.5544470215,12.63312927,0.9358538818,-0.3701988757,-2.909472466,-0.5742805004
0.889861,1.642534332,11.94605804,2.164049835,-0.6063805223,-3.358122349,-0.460345149
0.899859,2.598296814,10.68433182,3.032394104,-0.8521577716,-3.627734184,-0.4764340818
0.909858,3.407963104,9.55957077,3.341351624,-1.154166579,-3.327145815,-0.686563611
0.919856,3.700155487,8.850345612,3.006048889,-1.351713657,-2.608531713,-0.7925089002
0.929854,2.70173172,8.973988495,3.123404846,-1.16766715,-2.260663986,-0.7524093986
0.939853,1.775607605,9.093140717,3.65764389,-0.8060944676,-1.961912513,-0.7500960231
0.949851,1.640588379,9.033414917,3.21651123,-0.5285555124,-1.760623455,-0.8140166402
0.959850,1.111438751,8.822204132,3.309467926,-0.4262734056,-1.586520314,-0.8823197484
0.969848,0.6224057007,8.342152405,3.604504395,-0.4184405208,-1.511435986,-0.8981612921
0.979846,0.0715512085,8.032147064,3.67755249,-0.4244455397,-1.578453183,-0.8381577134
0.989845,-0.4144880676,7.81030838,3.346291351,-0.42887941,-1.691990972,-0.7612403035
0.999843,-0.6255491638,7.948471069,2.984044647,-0.4338573217,-1.770500779,-0.7100358009
1.009842,-0.5212161255,8.2771875,2.852917328,-0.4237519503,-1.800949216,-0.6676542163
1.019840,-0.2077679443,8.575966187,2.9368927,-0.4057272375,-1.813781023,-0.6454790831
1.029838,-0.06301895142,8.766669617,2.983296204,-0.3806810081,-1.814303041,-0.6491806507
1.039837,-0.04296066284,8.874894562,2.918930054,-0.3299500644,-1.769737363,-0.6581287384
1.049835,0.02589614868,8.669970703,2.893333282,-0.2566031516,-1.662131786,-0.6655647755
1.059834,0.2445913696,8.255931702,2.990331573,-0.1734683216,-1.546470165,-0.6693928242
1.069832,0.4556524658,7.752678223,3.237168274,-0.06006932631,-1.439581513,-0.668212533
1.079830,0.5120851135,7.352260895,3.456162872,0.05640058964,-1.250114918,-0.690079689
1.089829,0.4884342957,7.015161896,3.569776611,0.195475921,-1.049643636,-0.7113330364
1.099827,0.3547622681,6.843169556,3.448977814,0.3265121281,-0.8308353424,-0.7315106392
1.109826,0.252973938,6.738986206,3.135679321,0.4464015067,-0.6403500438,-0.7343133688
1.119824,0.3080593872,6.664590912,2.834206238,0.5364277363,-0.505450964,-0.7254050374
1.129823,0.4007167053,6.63091095,2.532433777,0.6169582605,-0.435002625,-0.7070590258
1.139821,0.5661227417,6.423442383,2.323019257,0.6768898368,-0.4067665637,-0.6580529213
1.149819,0.6595285034,6.108197937,2.099683685,0.7245574594,-0.4144210219,-0.5968950391
1.159818,0.7119195557,6.105353851,1.902393951,0.750197649,-0.4320564866,-0.5345558524
1.169816,0.7879614258,6.168522491,1.817520447,0.7787699103,-0.4530656338,-0.4832692146
1.179815,0.8717871094,6.184988251,1.93652298,0.7950219512,-0.4702632725,-0.4240014851
1.189813,1.059945831,6.359824677,2.258054352,0.7908405066,-0.4973481596,-0.3540146649
1.199811,1.226549377,6.678362274,2.89363266,0.7684828043,-0.5184241533,-0.2958912253
1.209810,1.295855255,7.092101898,3.748355255,0.7158587575,-0.5498380065,-0.2236092985
1.219808,1.36546051,7.882158966,4.588258667,0.6323415041,-0.5937979817,-0.1444005966
1.229807,1.204844513,8.931327209,5.530100098,0.5035286546,-0.7015867829,-0.1430032253
1.239805,0.5285508728,10.14994308,6.672075348,0.3232016265,-0.816188693,-0.1110286266
1.249803,0.2423460388,11.60746216,7.792345734,0.159533605,-0.9503209591,-0.09879885614
1.259802,-0.4610412598,12.40859619,8.489146729,0.05981364101,-1.061209321,-0.1784896255
1.269800,-1.376986542,12.42775635,8.480165405,0.04820572212,-1.061318517,-0.2924726605
1.279799,-1.822011108,11.78514267,7.859406281,0.1170697287,-0.9706513882,-0.384773314
1.289797,-1.831591187,10.8398584,6.910828857,0.2167377174,-0.9073797464,-0.4384714365
1.299792,-1.589245148,10.17733612,6.093079376,0.315225035,-0.8469318151,-0.4459944367
1.309791,-1.087338867,9.691147156,5.69475769,0.4033447802,-0.7580586672,-0.4198893309
1.319789,-0.3893403625,9.15361496,5.688021698,0.4791793227,-0.6731480956,-0.3815729022
1.329788,0.265847168,8.727750549,5.823939056,0.5108419061,-0.6130090952,-0.3276180625
1.339786,0.9148974609,8.533604279,6.052663422,0.5524474382,-0.5591889024,-0.2495983392
1.349785,1.470392303,8.368048553,6.177354126,0.6230826974,-0.5357203484,-0.1795790344
1.359783,1.716330872,8.234526215,6.072871399,0.6922653317,-0.5578374267,-0.1193394363
1.369781,1.784289551,8.394543457,5.931565247,0.7578275204,-0.5542437434,-0.06943792105
1.379780,1.684297485,9.047036591,5.452112274,0.7841128111,-0.4970838428,0.01612298936
1.389778,2.109114075,10.19634659,5.113965454,0.7416686416,-0.3830986619,0.164883703
1.399777,2.710862732,12.13676147,5.325924683,0.5435993671,-0.1862129122,0.3496654034
1.409775,2.875520325,15.05658966,5.742209015,0.1253251582,0.1719162017,0.463542968
1.419773,2.139800262,17.81161057,5.399571533,-0.397693485,0.5774890184,0.3996389806
1.429772,0.4833448792,17.68946457,4.566254425,-0.5775356889,1.196153879,0.331638366
1.439770,-0.09969268799,14.9577951,1.345701599,-0.4064992368,1.829494238,0.2765184045
1.449769,0.6306385803,11.26078308,-1.919757843,-0.1602346003,2.189666033,0.1815511286
1.459767,1.523082733,7.727380829,-2.851570129,0.06451246142,2.253350735,0.2272738516
1.469766,2.72044281,5.792953491,-2.849624176,0.22652933,1.943193674,0.4118362367
1.479764,3.667673035,5.117857361,-1.71648056,0.3253336251,1.31207633,0.6369831562
1.489762,3.690276031,4.620591431,0.2597099304,0.4172614217,0.7056130171,0.8110785484
1.499761,2.978206787,4.262086945,1.541943512,0.6172587276,0.4421536922,0.8776756525
1.509759,1.289568329,4.17137558,0.7445516968,1.004696727,0.7240479589,0.8334168792
1.519758,-1.18059494,4.846621399,-2.080972595,1.587595344,1.641642451,0.8633158207
1.529756,-3.065924377,6.460864563,-5.151088257,1.905960798,2.55133462,1.138487935
1.539754,-3.955374756,9.232051849,-5.188061371,2.022110224,3.194860935,1.484753251
1.549753,-4.571942596,12.0197049,-4.534819794,1.907368541,3.718379259,1.846092343
1.559751,-3.629203033,13.26122314,-4.002676392,1.464316964,4.178109646,2.24222064
1.569750,-1.971250763,12.83431091,-2.802771606,0.8619344234,4.276791096,2.448958874
1.579748,-2.180365906,13.0083989,-1.762584686,0.1723481566,3.485721111,1.995156884
1.589746,-3.210972748,14.90315872,-0.4144880676,-0.5074535608,1.879060984,0.7934418917
1.599745,-3.98067215,15.81506241,1.111139374,-0.3895609975,0.380569309,-0.4239494205
1.609743,-4.362528076,13.86581589,1.259780273,0.6710157394,-0.7580170631,-0.9838715792
1.619742,-4.059258728,10.34558624,2.069296875,1.792245626,-1.600516438,-1.098686695
1.629740,-2.172582092,8.48660202,2.672243042,2.48319602,-1.854498386,-1.089983821
1.639738,0.1502874756,8.095914459,1.881138153,2.620587587,-1.410640478,-1.010013342
1.649737,2.183958435,8.002957764,1.296004944,2.138128757,-0.3387578428,-0.7936871648
1.659735,3.920796661,8.124954071,1.515747986,1.375767708,0.7882441282,-0.4685741067
1.669734,3.973187714,8.083041229,1.738335114,0.7634691596,1.241763115,-0.138600722
1.679732,2.667303314,7.749983826,1.592388611,0.3598798811,1.007578731,0.09772207588
1.689730,1.631906433,7.850724335,0.7786807251,0.08997569978,0.5256803036,0.2464846671
1.699729,1.044078827,8.157286835,-0.4602928162,-0.062373586,0.1006603986,0.3221831024
1.709727,0.4809498596,8.472980347,-1.524878998,-0.004165672231,-0.2840577066,0.3067663312
1.719726,-0.1357676697,8.544381866,-2.437980194,0.2071454674,-0.4705021381,0.2139847726
1.729724,-0.5405259705,8.747659149,-3.124602356,0.4420993924,-0.3702399731,0.1488015205
1.739722,-0.7797285461,9.177565155,-3.394042053,0.7127419114,-0.03559410572,0.1021436751
1.749721,-0.9892927551,9.513017578,-3.16861084,1.003450394,0.4098044038,0.04138765112
1.759719,-1.001866608,10.08183472,-2.433938599,1.199900746,0.7914403081,-0.02196752653
1.769718,-1.071920929,10.70379135,-0.9904902649,1.216767907,1.062984109,-0.1152197048
1.779716,-1.493594055,10.56562866,0.5031037903,1.137059331,1.302534342,-0.2102991492
1.789714,-1.929188232,9.710906067,1.01683548,1.050464988,1.490586758,-0.2358007878
1.799713,-1.88383255,9.059610443,0.8153544617,0.9293367863,1.618684411,-0.2061726302
1.809711,-1.691482544,8.824599152,0.5831872559,0.8140370846,1.712246776,-0.1797103882
1.819710,-1.350042572,8.700357513,0.3252735901,0.7830451131,1.741223454,-0.1587212831
1.829708,-0.8909472656,8.592282257,-0.02933898926,0.8424093723,1.695643902,-0.1062032133
1.839706,-0.220790863,8.57791214,-0.3132984924,0.9219864607,1.513316512,-0.03555028513
1.849705,0.3640429688,8.687184906,-0.09864486694,1.023878455,1.260656118,0.06859076768
1.859703,0.9659413147,8.83178421,0.02948867798,1.170828462,1.077755332,0.13744542
1.869702,1.570983124,8.731642456,-0.0520916748,1.283706307,0.8655018806,0.1453576684
1.879700,1.863025818,8.568332062,0.6541397095,1.360763669,0.6083239913,0.143528372
1.889698,2.06869812,8.508157196,1.603166199,1.384002686,0.3921051621,0.1821247637
1.899697,2.161654816,9.198671265,2.423909454,1.342394829,0.4042895436,0.3194998205
1.909695,2.164798279,9.803563385,2.777324524,1.202417731,0.687351048,0.4574614167
1.919694,1.586850128,10.09620483,2.978655853,0.8549907207,0.9328286052,0.5751425624
1.929692,0.3427871704,10.17179764,3.822451172,0.3798989654,1.06991744,0.6586617231
1.939690,-1.179846497,9.981393585,4.018244019,-0.0742451176,1.173362136,0.6923081279
1.949689,-2.948418732,9.807754669,3.505410461,-0.4174898267,1.208728909,0.6527540684
1.959687,-4.616400146,9.73859848,3.042423248,-0.5471953154,1.092206836,0.4936202466
1.969686,-5.904471588,9.789642334,2.567910004,-0.4378772974,0.9186294079,0.2926088572
1.979684,-6.38631958,9.990823975,1.608105927,-0.1855025142,0.7210246325,0.08697678894
1.989683,-6.155499573,10.13572266,0.9912387085,-0.01552226208,0.5497063994,-0.0853760764
1.999681,-5.709277496,10.40306671,1.291065216,-0.01964041218,0.3742176592,-0.1928382218
2.009679,-5.057981873,10.81231567,2.123484192,-0.2844712734,0.1584467441,-0.2345129699
2.019678,-4.494403839,11.17396362,3.015030212,-0.7965647578,-0.05570696294,-0.216138944
2.029676,-4.321663055,11.80085999,3.285667419,-1.300707459,-0.3329550922,-0.3147230446
2.039674,-4.339625702,13.23996735,2.657573547,-1.451612473,-0.8617748618,-0.5784912109
2.049673,-4.328997803,15.98720444,1.553768921,-1.307509065,-1.520308375,-0.8630177379
2.059671,-3.858675842,17.8815152,-0.01017883301,-1.165089607,-2.01646328,-0.9845708609
2.069670,-2.594255219,17.53184235,-1.266815643,-1.277806878,-2.193331242,-1.051328778
2.079668,-0.8816665649,15.53604263,-0.9253756714,-1.680779696,-2.453193903,-0.9455820918
2.089667,0.7153623962,12.68686752,0.5935157776,-2.256326437,-2.450815916,-0.8530694246
2.099665,0.9300160217,9.964029694,0.9719288635,-2.745941639,-1.968625546,-0.8481926322
2.109663,0.9330097961,10.08527756,0.4287084961,-3.034408569,-1.264183998,-0.8799684048
2.119662,1.952240295,12.47700394,0.1547781372,-3.171610832,-0.7225887179,-1.00059545
2.129660,2.693049774,13.65789825,0.3549119568,-3.2272048,-0.4198155403,-1.104282975
2.139658,3.10304718,14.46561859,0.7306306458,-3.138786793,-0.3222634196,-1.055329204
2.149657,3.591780853,16.02971603,0.6713539124,-2.903236866,-0.3564264476,-0.854419589
2.159655,3.999233551,18.1627803,0.1883084106,-2.580663443,-0.4922806919,-0.5156353116
2.169654,4.246669006,19.78810043,-0.3697311401,-2.1877985,-0.7785782814,-0.09022513777
2.179652,4.153862,19.89123596,-0.550405426,-1.852241874,-1.055890918,0.2462849319
2.189651,3.300037537,17.54471558,-0.3438349915,-1.708244443,-1.195028782,0.3796419203
2.199649,2.245330811,14.21309372,0.2778222656,-1.690609336,-1.214928746,0.4074714482
2.209647,1.653461609,12.07029968,0.5869294739,-1.661332846,-1.131425858,0.38715446
2.219646,1.252595215,10.52371582,0.1550775146,-1.519173145,-1.156056523,0.2984962463
2.229644,0.4505630493,8.843908997,-0.2871029663,-1.428335905,-0.8532176018,0.2860561013
2.239643,1.01099762,7.370223541,-1.016536102,-1.344749808,-0.3048925698,0.3437643051
2.249641,1.595532074,6.444398804,-1.663640442,-1.243047953,0.06711642444,0.2517962754
2.259639,0.8204438782,5.910608826,-1.386865997,-1.092256546,-0.04823293164,0.09391395748
2.269638,0.4152365112,6.302194519,-0.7776329041,-0.570848763,-1.574027061,-0.2391353697
2.279636,-0.4716691589,6.940167847,-0.8000862122,-0.706150651,-3.154617786,-0.6021292806
2.289635,-1.130149841,7.311395874,0.6144721985,-1.702025056,-3.582159281,-0.6625009775
2.299633,-1.595532074,7.64999176,0.781973877,-2.601074696,-3.853977203,-0.4002845883
2.309631,-2.444416809,7.468419342,0.1742376709,-2.926158905,-4.050768852,-0.2880781591
2.319630,-3.462599487,6.543492737,-1.010398865,-2.74135828,-3.906862736,-0.392754823
2.329628,-3.470383301,5.889802094,-2.294129333,-2.218272448,-3.153473854,-0.4720701575
2.339627,-2.043101349,5.286257172,-2.818937988,-1.421751618,-2.477244854,-0.5550894141
2.349625,-0.09909393311,4.763244781,-1.587897949,-0.7736598849,-2.130922794,-0.5781955123
2.359623,1.596579895,4.910239105,-0.4441264343,-0.4051249027,-1.910446763,-0.717556417
2.369622,1.798659668,4.89212677,-0.5275030518,-0.1400264055,-1.687028289,-0.7991939783
2.379620,1.947599945,5.231171722,-0.935255127,0.08490196615,-1.455718517,-0.8406425714
2.389619,1.852697296,5.058880005,-0.7057823181,0.3127902448,-1.077258825,-0.8735741973
2.399617,1.957329712,4.222569122,-0.6216572571,0.5937110186,-0.6923080683,-0.929459691
2.409615,1.821262665,3.309916992,-0.6893165588,0.9158827066,-0.3790923357,-0.9858148098
2.419614,1.504671021,2.672243042,-0.7198530579,1.206446767,-0.1201300249,-1.013102889
2.429612,1.327888641,2.40100708,-0.4138893127,1.476549625,0.06394926459,-1.049112797
2.439611,1.381626892,2.425855408,0.2243833923,1.738088608,0.202550292,-1.0637151
2.449609,1.634900208,2.698288879,0.9833052063,1.986555934,0.2388254851,-1.065596938
2.459607,1.425934753,3.056793365,1.953587494,2.203691244,0.2434945256,-1.119807363
2.469606,0.672102356,3.628005524,2.854114838,2.277409554,0.5465055108,-1.069010973
2.479604,0.4544549561,4.950355682,4.232598267,2.204393625,0.8914683461,-1.039554
2.489603,-0.6367758179,6.880442047,6.75141037,1.918383718,1.315417528,-0.9326129556
2.499601,-1.308728485,10.56413177,9.920170898,1.515573025,1.708412051,-0.7091773152
2.509599,-1.039887543,16.25125534,12.34363129,1.135526896,2.129678488,-0.3180215657
2.519598,-0.6357279968,23.59513367,12.02688995,0.6934835911,2.193747044,-0.05748944357
2.529596,-1.593436432,27.45470764,11.3188623,-0.07486879081,0.9614354968,-0.2226693481
2.539595,-2.070344696,23.31282074,12.82338364,-0.7432197928,-0.5623434782,-0.3371516168
2.549593,0.5539979553,17.30521362,11.96267349,-0.9650216699,-1.415178537,-0.2327804565
2.559591,2.744093628,12.09844116,10.29080017,-0.8630321622,-1.697483301,-0.08322806656
2.569590,3.260669403,7.775730286,8.976682892,-0.6543388367,-1.773635864,0.1373136342
2.579588,3.750001831,5.628894653,6.878795471,-0.5689823031,-1.69539845,0.3744831681
2.589587,3.918251953,5.123096466,4.305047607,-0.5996012092,-1.605795026,0.6383222342
2.599585,4.033661957,5.820496216,3.64013031,-0.8176625967,-1.426873565,0.8212570548
2.609584,3.776047668,7.602540436,4.653672638,-0.9836624861,-0.8792908192,0.8795257211
2.619582,2.861748962,11.23608444,3.382815399,-0.6713526845,-0.3902756572,0.801857233
2.629580,1.869462433,15.8523349,2.189347229,-0.1637233347,0.282294482,0.4172490835
2.639579,-0.1372645569,16.90015594,0.869841156,-1.570396125e-05,1.637146831,0.1641389281
2.649577,-0.53004776,16.57548111,-1.714684296,0.4156842828,3.523276806,0.1737175137
2.659576,-0.8084687805,15.16556305,-8.421337738,0.6837835908,4.484967709,0.2019609064
2.669574,-0.7078779602,11.16079102,-9.179511108,0.5935751796,4.220741749,0.2006682009
2.679572,1.406624908,9.193282471,-5.30751297,0.5184146166,3.119049549,0.2437997013
2.689571,3.41784256,8.681646423,-1.1864328,0.4127603769,1.419491768,0.3196896613
2.699569,4.865033112,8.587941284,3.644620972,0.5665476322,-0.03499608859,0.4555581808
2.709568,5.244793396,7.319628754,3.443738708,0.7931781411,-0.1404487491,0.7695555091
2.719566,3.753444672,5.684878235,-1.411564636,1.044109464,0.894988358,1.208588243
2.729564,1.645977173,5.583389282,-5.571264496,1.39788878,2.192479134,1.517662525
2.739563,0.03697311401,6.447841644,-6.563251648,1.734701753,2.892122984,1.655843019
2.749561,0.3731739807,6.706204376,-5.099894714,2.014104128,3.137864351,1.749099731
2.759560,0.5140310669,6.902446289,-4.051175537,2.175570011,3.353901863,1.888666749
2.769558,0.1428030396,7.523205414,-3.886667633,2.145779371,3.448655128,1.954993367
2.779556,-0.8273295593,10.71067703,-3.843856659,1.69014442,2.604147196,1.486501098
2.789555,-2.735561371,16.57892395,-2.937940521,0.7117516994,1.048551917,0.5005853176
2.799553,-3.878434753,20.25423111,-0.6415658569,-0.08306949586,-0.01209916268,-0.3864260316
2.809552,-3.880081329,17.25117599,0.1613644409,0.519513309,0.06450106949,-0.7835707068
2.819550,-5.475314026,12.91574158,1.528022461,1.705164909,0.5228244662,-0.6267065406
2.829548,-6.517895966,10.8995842,3.761527863,2.248764992,0.5446679592,-0.5108867288
2.839547,-5.057233429,9.563911743,4.700375519,2.186878443,0.239016816,-0.4699861109
2.849545,-3.314407654,8.657396851,4.535717926,1.749159694,0.05438385159,-0.4707275331
2.859544,-1.522783356,7.602690125,3.137924652,1.330116153,-0.01087077521,-0.4075443745
2.869542,-0.03547622681,6.569089508,1.151106262,1.12466979,-0.0009206733666,-0.2409631312
2.879540,0.8824150085,6.130950623,-0.5102888489,1.212443233,-0.03202041239,-0.161033541
2.889539,1.011296997,5.780679016,-1.84401535,1.372399807,0.09640759975,-0.1228313074
2.899537,1.324296112,5.901777191,-2.199226685,1.33426106,0.5781545043,-0.0816584006
2.909536,1.328637085,7.10826828,-1.199904785,1.192959666,1.080081344,-0.02481855452
2.919534,0.6524931335,8.464597778,-0.2912942505,1.012842178,1.49744904,-0.002625038382
2.929532,-0.2252815247,9.487869873,-0.06780899048,0.8618181348,1.923691392,-0.04189414904
2.939531,-0.9554631042,10.09081604,-0.2836601257,0.7779889703,2.196579456,-0.1272132546
2.949529,-1.422042847,10.4681813,0.06421646118,0.7292131782,2.17509532,-0.217060864
2.959528,-1.50242569,10.34962784,1.053958282,0.7921909094,1.918554068,-0.2385468334
2.969526,-1.191522217,9.364975433,1.66618515,0.9455700517,1.520239115,-0.13374345
2.979524,-0.6277944946,8.354576569,1.893861694,1.087260842,1.122109652,0.03940568864
2.989523,-0.04281097412,7.606132965,1.684147797,1.093456149,0.7955229282,0.179790765
2.999521,0.4116439819,7.211104431,1.230291595,0.9977638721,0.6145501137,0.2304838896
3.009520,0.9183403015,6.844666443,0.7429051208,1.008416772,0.7387082577,0.2708496749
3.019518,1.286275177,6.829547882,-0.4593946838,1.157419324,0.9284326434,0.3475801349
3.029516,1.671124878,7.299271088,-0.9490264893,1.35156703,0.8836958408,0.4273319542
3.039515,1.947150879,7.940986633,-0.2634521484,1.511940002,0.5296482444,0.5195943117
3.049513,2.165995789,8.868607635,0.876277771,1.571954966,0.02285801433,0.6520122886
3.059512,1.904339905,9.929451599,1.993704071,1.495304585,-0.3678638041,0.7371239662
3.069510,0.7875123596,10.66487228,2.55548584,1.333350062,-0.3760215938,0.7624288201
3.079508,-0.549357605,11.09073669,2.458188171,1.072663188,-0.02982009016,0.7646360397
3.089507,-1.741777954,11.14043335,2.294877777,0.7307662964,0.5664230585,0.7483206987
3.099505,-2.509681091,10.60604462,1.912423096,0.3227287531,1.205035448,0.6903066039
3.109504,-2.975811768,10.1006955,1.453477478,-0.03629251942,1.665663242,0.5986065269
3.119502,-3.351979523,10.25427612,0.8370593262,-0.2162605077,1.791006207,0.4239008725
3.129500,-3.805985413,10.87488556,0.109871521,-0.1516668797,1.54166615,0.1650048494
3.139499,-4.43108551,11.53336624,-0.4393363953,0.08336686343,1.006491184,-0.1059911549
3.149497,-4.865482178,11.86402863,-0.5348377991,0.3249155581,0.3120962381,-0.3071692586
3.159496,-4.925058289,11.77930481,0.2174977112,0.5141744614,-0.2609035075,-0.3984121382
3.169494,-4.316723328,10.80468155,1.197060699,0.5545521975,-0.5526568294,-0.471704185
3.179492,-3.475472717,9.981543274,2.304457855,0.3454766273,-0.4997054636,-0.5388835669
3.189491,-2.605332184,9.758207703,3.93965744,-0.07335286587,-0.1565699279,-0.4734550416
3.199489,-1.571282501,10.41788589,5.170697479,-0.5561375618,0.1043523476,-0.2489229292
3.209488,-0.4863386536,12.07748474,5.337001648,-1.010731459,0.02307479829,0.01888615265
3.219486,0.05523513794,14.29332687,4.298461304,-1.348393559,-0.4025196433,0.1771513373
3.229484,-0.305514679,17.04161179,2.589165802,-1.655714273,-0.9045616984,0.1664907038
3.239483,-1.129401398,19.54291031,0.8041278076,-1.90511632,-1.28947556,-0.07468825579
3.249481,-2.811453552,19.08725784,-1.081800385,-2.004838228,-1.713220477,-0.5006552935
3.259480,-4.168082428,15.74949875,-2.065404968,-2.063671112,-2.062905312,-0.777743876
3.269478,-3.213966522,12.02808746,-2.365381165,-2.36662817,-2.08622098,-0.8181677461
3.279476,-0.4326004028,9.637259216,-1.739682312,-2.885167122,-1.771739602,-0.7816069126
3.289475,1.752256165,10.26340714,-0.583636322,-3.213687897,-1.2787714,-0.7562150359
3.299472,2.397264862,12.8224855,-0.305514679,-3.290329218,-0.8974092603,-0.8497180939
3.309471,2.273771667,13.90368713,-0.2956352234,-3.293339252,-0.6189195514,-0.9188340306
3.319469,2.628683624,14.4960054,0.0303868103,-3.248215437,-0.4177187085,-0.9417421818
3.329467,3.107238464,14.64853821,0.2137554932,-3.166240931,-0.3455385268,-0.9740854502
3.339466,3.095862122,14.58536957,0.4218228149,-3.033319473,-0.3934068382,-0.985709846
3.349464,2.954555969,15.12873962,0.6692582703,-2.857965708,-0.506290555,-0.9371321797
3.359463,2.928510132,15.98361191,1.036594391,-2.654254913,-0.6631246209,-0.8075129986
3.369461,2.884052582,16.74268341,1.53745285,-2.501426697,-0.9394193292,-0.6412183046
3.379459,2.414479065,16.70121964,2.376607819,-2.428324938,-1.278069496,-0.43841362
3.389458,1.707648926,15.67944443,2.717149658,-2.441677332,-1.528435469,-0.2006945312
3.399456,1.08464447,13.42528198,2.462828522,-2.485267162,-1.73555696,0.01936312579
3.409455,0.5295986938,10.46354095,1.663640442,-2.516254425,-1.725652099,0.07012750208
3.419453,-0.4908293152,8.169112244,0.2957849121,-2.506690979,-1.412943125,0.1015857831
3.429451,-0.4204756165,7.306905212,-1.287622375,-2.378356457,-1.224691272,0.206213668
3.439450,0.3391946411,6.513704681,-2.32032486,-1.64509964,-2.273069859,0.08816669136
3.449448,-0.2139051819,6.085744629,-4.101920013,-0.9888109565,-3.376313925,-0.2106690109
3.459447,-1.411714325,5.631738739,-5.204676819,-0.9186388254,-3.706223965,-0.5072079897
3.469445,-2.327360229,6.034850464,-4.296665039,-1.449614048,-3.559402704,-0.777317524
3.479443,-3.597918091,7.881859589,-1.113085327,-2.129131079,-3.355907679,-0.8453940749
3.489442,-3.128045197,9.506131897,0.9629475403,-2.408639431,-3.381988525,-0.8227798343
3.499440,-1.818867645,8.926088104,0.6698570251,-2.131491661,-3.476161957,-0.9739531875
3.509439,-1.163829803,7.656877441,-1.135089569,-1.655240774,-3.508343935,-1.139443874
3.519437,-0.06915618896,6.642436981,-1.974094849,-1.156593204,-3.114216566,-1.157710671
3.529435,1.169967041,6.042933655,-3.133883057,-0.8976678848,-2.748355865,-1.032208443
3.539434,1.911524963,5.494923248,-2.161355438,-0.6805992126,-2.501018286,-0.9076812267
3.549432,2.014061737,5.110672302,-1.318009186,-0.3203659356,-2.219680071,-0.7983656526
3.559431,2.469564514,4.651876373,-1.758543091,0.07271570712,-1.762342095,-0.7315436006
3.569429,2.952310638,3.567680969,-2.138303375,0.4347335696,-1.19428432,-0.7368521094
3.579427,2.244881744,2.090552673,-2.034419403,0.7743234634,-0.5885031223,-0.6897971034
3.589426,1.095122681,1.359922028,-1.978136444,1.047840476,0.0435230881,-0.6068843603
3.599424,1.086141357,0.9285191345,-1.345701599,1.296191931,0.4545339048,-0.567942977
3.609423,1.082848206,0.8174501038,0.02050735474,1.553717732,0.7179154754,-0.5660846233
3.619421,1.062789917,1.213825836,1.38536911,1.834378123,0.9290350676,-0.5834076405
3.629419,0.9909393311,1.768721924,2.606529694,2.115143061,1.044831991,-0.6880038381
3.639418,0.6622229004,2.477647705,3.745511169,2.310104609,1.188763857,-0.7870579958
3.649416,0.6607260132,3.816313934,5.200784912,2.360357285,1.372995973,-0.785246253
3.659415,0.9583071899,5.771548004,7.60209137,2.243134499,1.277498841,-0.6701261401
3.669413,1.427581329,8.782237244,10.27777725,1.935555696,1.052200794,-0.2829136848
3.679411,2.533631287,13.47916992,12.17837494,1.456479311,0.7385817766,0.1927303821
3.689410,2.523003387,18.30797836,13.06049057,0.9559959769,0.6793757081,0.399557054
3.699408,1.175206146,22.28535736,10.9048233,0.4091449976,0.4659350514,0.2637602389
3.709407,-0.06301895142,23.5469339,9.738748169,-0.2553251386,-0.1947193146,-0.04223483056
3.719405,0.1779798889,20.32039352,9.345815277,-0.632178247,-0.7179089189,-0.1267978251
3.729403,1.795516205,14.4403212,7.987539825,-0.6195868254,-0.822578311,-0.1099804938
3.739402,2.49695755,9.519454193,6.998696136,-0.4455996156,-0.5290483832,-0.0133058615
3.749400,2.981050873,6.976691895,6.236930237,-0.2832061648,-0.1625348926,0.1396725029
3.759399,4.059258728,5.924978943,5.665867767,-0.1644711643,0.02359265462,0.3840256631
3.769397,5.589825897,6.368955688,5.168601837,-0.1896228492,-0.003158531385,0.6624594331
3.779396,6.621330872,8.98162262,5.80597641,-0.2511714101,-0.2782485485,1.11058867
3.789394,6.946155396,15.02171219,6.568490753,-0.3923830986,-0.451248318,1.535052657
3.799392,6.165828094,20.09720764,7.223678284,-0.6271451116,-0.06169028953,1.540215969
3.809391,2.809657288,19.90904892,5.522316284,-0.6271621585,0.9258788228,1.179777384
3.819389,-1.332528992,16.92320801,0.4445755005,-0.3327632546,2.038925171,0.6425395608
3.829388,-3.529510345,13.49743195,-3.344495087,0.1411995143,2.92899394,0.3310727477
3.839386,-2.421514435,9.771679688,-6.564598846,0.4399803579,2.945677996,0.1697943509
3.849384,-0.04999603271,7.107819214,-5.425617371,0.7600225806,2.470826626,0.1246119663
3.859383,1.824406128,6.237229614,-3.229234772,1.05749023,1.824309587,0.1954488605
3.869381,2.542013855,6.137686615,-1.182391205,1.335296035,1.404311776,0.2308286875
3.879380,1.370998993,5.523513794,-1.203647003,1.683164239,1.343503475,0.2776474655
3.889378,-0.563278656,5.306465149,-3.432362366,1.987243772,1.693861008,0.5335620642
3.899376,-1.803599396,5.914351044,-6.173911285,2.143997669,2.152964115,1.052199125
3.909375,-1.845961304,7.112609253,-7.141798553,2.201833963,2.553166389,1.582036376
3.919373,-1.563947754,7.517068176,-6.078409882,2.136029959,2.90442872,2.000650883
3.929372,-0.8746311951,7.940537567,-4.000131683,1.943818331,3.074638128,2.237162352
3.939370,-0.5733078003,8.710386658,-2.646646271,1.565169811,3.107738972,2.315323114
3.949368,-1.247805176,11.68290527,-2.132764893,0.9628408551,2.544718266,1.819685578
3.959367,-2.818039856,18.11547867,-1.041534119,0.2122345716,1.207734227,0.6502091289
3.969365,-4.539310455,21.45368683,0.1619631958,0.1661616117,0.3464475572,-0.6793529391
3.979364,-5.995332642,17.93555283,0.674197998,1.799215078,0.3108094931,-1.081115961
3.989362,-6.404581604,13.11422882,2.497705994,3.203836203,0.3753887713,-1.151482344
3.999360,-4.790937195,9.297166443,3.740122375,3.728401899,0.393424511,-1.269022346
4.009359,-2.378104706,7.586523743,4.563859406,3.233908176,0.8824344277,-1.35041821
4.019357,-0.08906478882,7.163653107,5.07699234,2.091465235,1.527221441,-1.152103305
4.029356,1.275198212,7.133715363,5.110672302,1.04132998,1.711999774,-0.8333852887
4.039354,1.878593445,6.596183167,4.292024689,0.6224380136,1.438696265,-0.5712997317
4.049352,2.104024658,5.506748657,2.407743073,0.6920219064,1.050423384,-0.3658227026
4.059351,2.232756958,5.103636932,-0.08277786255,0.8266118765,0.8183903098,-0.1556273252
4.069349,2.516117706,5.370382233,-1.528920593,0.7143830657,0.6998053193,0.04109532014
4.079348,2.108066254,6.406377869,-1.604663086,0.5476197004,0.6620671153,0.2096989304
4.089346,1.224453735,7.481741638,-1.773961029,0.4522332847,0.8239601851,0.2791467309
4.099344,0.04116439819,8.603508911,-1.97274765,0.484505564,1.066871881,0.2529192269
4.109343,-1.08120163,9.31153656,-1.717229004,0.6388040781,1.229427576,0.2080907673
4.119341,-2.001038818,9.923314362,-0.732127533,0.8397337794,1.211095214,0.1750243604
4.129340,-2.505340118,9.909542999,0.5933660889,1.079027653,1.105967164,0.1858298779
4.139338,-2.420765991,9.835147705,1.181642761,1.26826787,0.9391041994,0.1768089384
4.149336,-2.315385132,9.521400146,1.436113586,1.295817733,0.7824022174,0.140206188
4.159335,-2.112407227,8.842412109,1.482816467,1.201935053,0.6939303875,0.1112594083
4.169333,-1.703307953,8.135282593,1.303788757,1.085877061,0.7254830003,0.1153918356
4.179332,-1.148561554,7.751031647,0.7688012695,1.071028948,0.9066858292,0.1603123844
4.189330,-0.5278024292,7.823780365,-0.06316864014,1.176788688,1.071002364,0.2183322757
4.199328,0.1886077881,8.071664886,-0.2513273621,1.293434143,0.9627133608,0.3202337623
4.209327,1.079704742,8.400381317,0.7066804504,1.365641832,0.5388318896,0.4851814508
4.219325,1.791624298,8.727151794,1.889371033,1.345641017,0.03476342186,0.6813736558
4.229324,2.056573334,9.014105072,2.532583466,1.212801218,-0.2865338922,0.8495190144
4.239322,1.792073364,9.468859406,2.484683075,1.038143635,-0.3116033077,0.9285395145
4.249320,0.87522995,10.09545639,1.983076172,0.8743596077,-0.1093878895,0.9095562696
4.259319,-0.5719606018,10.52416489,1.457668762,0.7880183458,0.331787914,0.844235301
4.269317,-1.695224762,10.55649765,0.7210505676,0.6979805827,0.8624818325,0.7201703191
4.279316,-2.414778442,10.24918671,0.3864962769,0.4775789976,1.218753934,0.5807578564
4.289314,-3.192261658,10.31879196,0.763711853,0.152777195,1.261744738,0.4459291697
4.299313,-4.038302307,10.8611142,1.287472687,-0.1119866669,1.014902711,0.3231280148
4.309312,-5.005291443,11.3387709,1.538350983,-0.1682517976,0.5814127922,0.1549568325
4.319310,-5.754782867,11.72377029,1.364712067,-0.02423080057,0.191828385,-0.08146043122
4.329309,-6.134543152,12.09769272,0.8331674194,0.2221560776,-0.01744573191,-0.3005925119
4.339307,-5.621260529,11.72511749,0.579894104,0.3695200384,-0.1543465853,-0.5006023645
4.349305,-4.447251892,10.7668103,1.412612457,0.3108069301,-0.09653122723,-0.6602111459
4.359304,-2.437082062,9.589209137,2.141147461,0.09511147439,0.05631439015,-0.5688257217
4.369302,0.3932322693,9.76554245,2.416724396,-0.3496502638,-0.07858723402,-0.1242527962
4.379301,3.302731934,11.94351334,3.436703339,-0.8325446844,-0.622132957,0.3077469766
4.389299,4.198768616,15.06437347,3.989503784,-1.176726222,-1.405556083,0.4368191957
4.399297,1.543141022,18.38192459,3.821852417,-1.65992558,-1.699515939,0.2169745117
4.409296,-3.216361542,18.91810959,2.671195221,-2.096828938,-1.620404124,-0.2109986544
4.419294,-6.728058929,16.3407692,-0.01272354126,-2.380212069,-1.668554544,-0.6318979859
4.429293,-6.747219086,13.19775513,-1.695224762,-2.548506498,-1.582070231,-0.8818465471
4.439291,-3.823199615,11.49324966,-2.416874084,-2.78959465,-1.404199123,-0.9576315284
4.449289,-1.142723694,11.16153946,-2.222578125,-3.066348553,-1.093788743,-1.07178092
4.459288,-0.1447489929,12.08422073,-2.04759201,-3.110580444,-0.6776943207,-1.218162656
4.469286,1.276994476,13.3228949,-2.665956116,-3.112850428,-0.4000158608,-1.285659194
4.479285,2.915337524,14.34511917,-1.61124939,-3.138689995,-0.3116326034,-1.288481236
4.489283,3.585344238,15.24908936,-0.2139051819,-3.082493544,-0.398208499,-1.280774117
4.499281,3.238515472,15.58663742,0.24923172,-2.947962523,-0.5844934583,-1.329904556
4.509280,2.53677475,16.0261235,0.3691323853,-2.831592083,-0.8182857037,-1.379426241
4.519278,1.983525238,16.95584015,0.9792636108,-2.771376133,-1.02577889,-1.317636251
4.529277,1.764979706,17.75742325,1.848655701,-2.733756304,-1.177010298,-1.05783391
4.539275,1.921404419,17.85831345,2.257305908,-2.689482212,-1.243746042,-0.6241742969
4.549273,2.207758942,17.36808289,2.239942017,-2.605951786,-1.259986281,-0.07523208112
4.559272,2.38933136,15.87329132,1.992955627,-2.515140295,-1.201571226,0.4102885425
4.569270,1.976489868,12.3753653,1.607806549,-2.3773458,-1.297539115,0.5481616855
4.579269,0.396076355,9.071735229,0.7927514648,-2.272045612,-1.329548717,0.5540238023
4.589267,0.1772314453,7.405400391,-0.226179657,-1.847800374,-1.862507463,0.5937139988
4.599265,1.197958832,6.709946594,-1.910626831,-0.9184575677,-3.135008574,0.3669036925
4.609264,0.5513035583,6.369853821,-4.979544983,-0.2120575607,-3.714793682,-0.188887924
4.619262,-1.010249176,4.916975098,-6.773863678,-0.6795901656,-3.43218708,-0.8739469647
4.629261,-2.853665771,4.92610611,-3.342549133,-1.8175385,-3.10195756,-1.253376007
4.639259,-3.772604828,7.865992584,0.1803749084,-2.563591242,-3.204022646,-1.119758844
4.649257,-2.183958435,9.496102753,-0.1137634277,-2.737804174,-3.772371054,-0.8713926673
4.659256,-1.884281616,9.317524109,-1.706601105,-2.564878702,-4.071518421,-0.9718245268
4.669254,-2.035616913,7.258705444,-3.587290192,-2.338320494,-3.795189857,-1.140184045
4.679253,-0.9195378113,5.089715881,-3.896996155,-1.915320516,-3.324028492,-1.035805106
4.689251,0.5325924683,3.886517944,-3.09601181,-1.349698424,-2.916781425,-0.9275851846
4.699249,1.108444977,2.94632309,-2.10851532,-0.8798536658,-2.586579323,-0.8964787126
4.709248,1.921554108,2.338886261,-1.301693115,-0.4105535448,-2.492698908,-0.8420678973
4.719246,2.668500824,2.452949066,-0.8756790161,0.08986403793,-2.286678553,-0.7437925339
4.729245,3.400927734,2.469714203,-1.118474121,0.5768624544,-1.941316247,-0.679689467
4.739243,3.367846527,1.723066864,-0.9075627136,1.028172851,-1.382772684,-0.6577991843
4.749241,2.400408325,0.9370513916,-1.244661713,1.398532748,-0.6997538209,-0.6308765411
4.759240,1.641187134,0.4572990417,-1.176553345,1.713633537,-0.0003124168143,-0.5987456441
4.769238,1.436712341,0.5165757751,-0.5471122742,2.001237154,0.500692606,-0.5834431052
4.779237,1.469943237,1.073717194,0.3700305176,2.267667532,0.7525238395,-0.58295542
4.789235,1.341360626,2.07453598,1.246008911,2.487037182,0.907453537,-0.612508297
4.799233,1.068927155,3.053200836,2.123035126,2.612051487,1.087703586,-0.6611068845
4.809232,0.9638456726,4.368665314,3.611539764,2.600171804,1.264666915,-0.6975916624
4.819230,0.9764195251,6.446644135,5.924829254,2.36211586,1.263450027,-0.5482128859
4.829229,1.935475159,9.931247864,8.589887238,2.034454346,1.002250671,-0.09602708369
4.839227,3.760030975,15.90098373,11.38727005,1.563894272,0.659378171,0.4687440395
4.849225,4.938081207,23.03320221,13.30523163,0.8335540295,0.5529289246,0.6502221823
4.859224,2.454745331,28.41376328,12.31758545,-0.1883489341,0.132732451,0.1382328272
4.869222,-2.020348663,27.87488388,11.77720917,-0.9185435176,-0.6117885709,-0.390314132
4.879221,-1.894610138,20.98441269,10.45650558,-1.052874088,-0.9655297399,-0.5569263101
4.889219,1.625320129,12.62759079,8.740474091,-0.7439215779,-1.046720743,-0.6124284863
4.899217,2.378853149,6.808142395,8.199199677,-0.4472172558,-0.6244151592,-0.5106732249
4.909216,2.339934082,5.081782379,6.641688538,-0.3509003222,0.04593711719,-0.162177816
4.919214,3.989354095,5.964646454,5.444627838,-0.4183401465,0.5851495862,0.3175419271
4.929213,6.522236938,8.290509796,5.51692749,-0.5631750822,0.5244233608,0.8299434185
4.939211,7.757318573,12.50334915,6.091732178,-0.7026096582,-0.2626014352,1.399832726
4.949210,7.462581482,18.19915466,6.064039764,-0.9463930726,-0.6004098654,1.631777644
4.959208,5.140460358,19.11929123,3.608396301,-0.9235013127,0.1277462244,1.446296215
4.969206,1.581760712,14.5982428,-1.065634003,-0.578707695,1.207314968,1.021726489
4.979205,-0.5866300964,10.75348801,-3.802841949,-0.0748276636,2.103216887,0.7017568946
4.989203,-0.8530760193,8.597072296,-5.831573181,0.4051178992,2.359267235,0.498552084
4.999202,0.0130229187,7.297325134,-5.169949036,0.7573791146,2.183818102,0.354233712
5.009200,0.7948471069,6.957232361,-2.836152191,1.076976538,1.822481632,0.3105999529
5.019198,1.29181366,7.457941132,-1.421294403,1.440706491,1.603803158,0.2500762641
5.029197,0.4423301697,7.505242767,-2.157912598,1.786224484,1.703308702,0.2590551376
5.039195,-0.7955955505,7.535928955,-4.256997528,2.051708221,2.099164486,0.4526612461
5.049194,-1.603315887,7.730973358,-6.033054199,2.188031912,2.496340275,0.8409013748
5.059192,-1.805994415,8.012837219,-6.291416931,2.151112556,2.80395174,1.285893202
5.069190,-1.7106427,7.68157608,-5.338049469,2.014692307,3.020700932,1.644949079
5.079189,-0.936302948,7.419022064,-3.828289032,1.803055763,3.040565491,1.876340389
5.089187,-0.4601431274,8.030500488,-2.440375214,1.433909178,3.002088785,1.996317863
5.099186,-0.7288343811,10.44947021,-1.746418304,0.8359770179,2.642468929,1.697305799
5.109184,-1.739682312,15.25956757,-1.094823303,0.1902102381,1.71272862,0.7240477204
5.119182,-3.441792755,19.16928726,-0.4721182251,-0.04106719792,0.9238135219,-0.5917022228
5.129181,-4.747228088,17.55070313,-0.4492158508,1.232381582,0.7774654031,-1.191041589
5.139179,-5.379064178,13.67002304,1.156345367,2.861741781,0.6439515948,-1.150271177
5.149177,-4.735702057,10.35471725,2.74858429,3.767729998,0.3735354841,-1.020789385
5.159176,-2.809657288,8.849597168,3.817212067,3.684906244,0.4289076626,-0.9628989697
5.169174,-0.3035687256,8.166717224,4.759203186,2.689527988,1.027805209,-0.8961274028
5.179173,1.586251373,6.975494385,5.781726837,1.544836402,1.305262566,-0.7130300403
5.189171,1.858834534,6.45532608,5.538183289,0.8763841391,1.189979196,-0.4614563882
5.199169,1.729952545,6.262826385,3.158132629,0.7359373569,0.9200841784,-0.2068319172
5.209168,1.934427338,6.005361786,-0.2603086853,0.8119322658,0.5142346621,-0.04254737869
5.219166,2.013912048,6.305487671,-2.057321777,0.7955778241,0.2877420187,0.03158858046
5.229165,1.533860321,7.173532562,-2.273771667,0.7393622398,0.3331449032,0.1569164097
5.239163,0.7810757446,8.164621582,-2.268382874,0.7328395844,0.6103861332,0.2346472144
5.249161,-0.0001496887207,8.623716888,-2.399360504,0.8041625023,1.130639315,0.2430050075
5.259160,-0.649050293,9.244625702,-2.52390152,0.9204656482,1.718159914,0.2406901866
5.269158,-0.9442364502,9.656119995,-2.142943726,0.9422370195,1.908833623,0.1724136621
5.279157,-1.128652954,9.811646576,0.005688171387,0.9276601672,1.708708167,0.1187965721
5.289155,-0.9818083191,9.221124573,1.814077606,0.954488337,1.395861268,0.1192796752
5.299153,-0.7454498291,8.441396027,2.095791779,1.000916123,1.175156832,0.1929428428
5.309151,-0.5278024292,8.054001617,1.63340332,0.9799495339,1.08079946,0.2909882069
5.319149,-0.2071691895,7.81030838,1.110241241,0.8890970349,1.04482913,0.3507871628
5.329148,0.05658233643,7.843539276,0.702638855,0.8033736348,1.01668787,0.3883009851
5.339146,0.2284249878,7.768545227,0.2327659607,0.7975264192,0.9637770653,0.4426880181
5.349144,0.3796105957,7.778424683,-0.1793270874,0.9490014315,0.9318148494,0.5174285769
5.359143,0.4634362793,7.96598465,-0.7762857056,1.288531661,1.032193184,0.5966756344
5.369141,0.5077441406,8.110284576,-1.465901642,1.592218041,1.000454903,0.6557280421
5.379140,0.3811074829,8.426427155,-0.5215155029,1.663751006,0.6156800985,0.7416091561
5.389138,0.2023791504,9.446256409,1.634151764,1.568482757,0.1376924515,0.7996599674
5.399136,0.07005432129,10.66577042,2.723436584,1.405032396,-0.05950210616,0.7288454175
5.409135,-0.05463638306,11.588302,2.728975067,1.23703301,0.04969255999,0.6704500318
5.419133,-0.3303630066,11.84277283,2.883154449,1.007249951,0.5608056188,0.7043259144
5.429132,-0.6905140686,11.25868744,2.863694916,0.5726140141,1.2323246,0.71576792
5.439130,-1.768721924,11.02816681,2.928959198,-0.02189229056,1.808265567,0.6411098242
5.449128,-3.45286972,11.17755615,2.702330475,-0.5042523146,2.014362097,0.4377579987
5.459127,-5.284760284,11.32245483,2.347568207,-0.5761241913,1.648416758,0.1410968602
5.469125,-6.464307404,11.53022278,1.890718231,-0.2509069741,0.8554698825,-0.1237193495
5.479124,-6.975195007,11.78110107,1.167272644,0.1464895457,0.04938763008,-0.3002034426
5.489122,-7.011719055,11.18818405,0.4766088867,0.3822560012,-0.4661145806,-0.3747245371
5.499120,-6.243965607,9.864636383,0.3514691162,0.3212761581,-0.7972673774,-0.4371243715
5.509119,-4.77746521,8.729696503,1.60062149,-0.07950535417,-0.8372629881,-0.5342403054
5.519117,-2.235601044,9.216484222,3.024460602,-0.5752948523,-0.7660984993,-0.4144518375
5.529116,0.4709207153,13.23697357,3.67051712,-0.9748731256,-1.013899803,-0.2465179563
5.539114,1.901944885,18.78503632,4.177662506,-1.395662427,-1.481164217,-0.162052393
5.549112,1.628613281,21.01464981,3.582051086,-1.970095038,-1.901584983,-0.2134889513
5.559111,-0.2751278687,19.58347595,2.123933258,-2.533384323,-1.919805408,-0.5381600261
5.569109,-2.6210495,16.53476578,0.240100708,-2.816462755,-1.498239517,-0.9217641354
5.579108,-2.9077034,13.73364075,-2.010020142,-2.840810776,-0.9744520187,-0.952462256
5.589106,-1.760339355,11.69038971,-3.413800964,-2.899419546,-0.6410236955,-0.9802619219
5.599104,-0.8466394043,10.12763947,-3.150199127,-2.999538183,-0.5168118477,-1.160820842
5.609103,1.025667114,11.13818802,-2.591261444,-3.097827911,-0.5133343339,-1.282059908
5.619101,2.949167175,12.98789154,-1.732347565,-3.152315855,-0.4802591503,-1.295217276
5.629100,3.901935883,13.96865204,-0.8831634521,-3.116710663,-0.506326437,-1.238389134
5.639098,4.062701569,14.76379852,-0.1224453735,-2.992462635,-0.6280885935,-1.185703397
5.649096,3.647465057,15.70204742,0.3376977539,-2.815537214,-0.7899534106,-1.142629743
5.659095,3.093018036,16.91258011,0.6938072205,-2.643512011,-0.8420103192,-1.00086081
5.669093,2.852168884,17.90157349,0.8723858643,-2.513130188,-0.832482338,-0.7040044665
5.679092,2.717449036,17.74559784,1.189875641,-2.431836605,-0.8442175388,-0.3175548613
5.689090,2.417622528,16.5344664,1.459165649,-2.386117935,-0.8391705751,0.01650406606
5.699088,1.938618622,14.44765594,1.288071442,-2.387221813,-0.7831668854,0.2425317764
5.709087,1.381477203,11.69473068,1.276695099,-2.341383696,-0.7946671844,0.3342318833
5.719085,0.6406677246,8.864266663,1.20050354,-2.306583405,-0.6615446806,0.2572987974
5.729084,-0.07364685059,7.257058868,0.2689906311,-2.160303116,-0.6394814253,0.1618172973
5.739082,0.04595443726,6.629863129,-0.7113208008,-1.496918082,-1.574949145,-0.02997752652
5.749080,0.3385958862,6.281687164,-2.618804169,-0.6674014926,-2.801538706,-0.3378381431
5.759079,0.1755848694,6.399941254,-4.855602722,-0.5469366908,-3.598101377,-0.6822457314
5.769077,-1.147364044,6.785988464,-2.694846039,-1.24484539,-3.852458239,-0.9433189034
5.779076,-2.000290375,8.311615906,0.1645079041,-1.997086525,-3.458613634,-1.055271745
5.789074,-1.983225861,9.661658478,-0.1016386414,-2.268519878,-3.238304377,-1.011037707
5.799072,-1.347647552,9.641300812,-0.812510376,-2.182001591,-3.298665047,-1.058708549
5.809071,-1.442250824,8.677904205,-1.471589813,-1.983848214,-3.390804529,-1.281445503
5.819069,-1.407523041,6.92100769,-1.463356934,-1.608868361,-3.30318284,-1.408308029
5.829068,-0.2680924988,5.563630371,-1.988165588,-1.151120782,-3.073223114,-1.313796401
5.839066,0.859662323,4.732558594,-1.974843292,-0.786693871,-2.894078493,-1.163453698
5.849064,1.112336884,4.208348694,-1.432521057,-0.5318522453,-2.862668037,-1.066452861
5.859063,1.217568054,4.029470673,-1.497036896,-0.2065212727,-2.737388849,-0.9723231792
5.869061,1.54568573,3.874692535,-1.885628815,0.2146880031,-2.428812265,-0.8412402272
5.879060,2.182611237,3.359763336,-1.960323486,0.6392765045,-1.92852354,-0.7726275325
5.889058,1.894610138,2.279759216,-1.932631073,0.9666695595,-1.267058253,-0.7639214396
5.899056,1.022823029,1.497186584,-1.939067688,1.232849956,-0.6325199008,-0.7627843022
5.909055,0.623303833,1.239721985,-1.634750519,1.469575882,-0.1550050378,-0.765322566
5.919053,0.8246351624,1.164428558,-0.7032376099,1.721551061,0.1170353889,-0.8115701079
5.929052,1.062041473,1.576222229,0.3201841736,1.963670135,0.3061089218,-0.8497254848
5.939050,1.220112762,2.256707153,1.172511749,2.188242197,0.5461747646,-0.8949043155
5.949048,1.160836029,2.90066803,2.049238586,2.3308568,0.9681153297,-0.8887526989
5.959047,1.371148682,3.937412109,3.453767853,2.351866484,1.34150219,-0.8418251276
5.969045,1.674717407,5.662574615,6.05984848,2.229142189,1.425480723,-0.6795214415
5.979044,2.348616028,8.996292114,8.961414642,1.888879061,1.066494823,-0.1812565774
5.989042,3.982468414,15.03204071,12.37985596,1.404372573,0.4607763588,0.4474947155
5.999040,3.911066895,21.53227341,14.88818985,0.8124652505,0.2525072098,0.5681324601
6.009039,0.2249821472,26.35419617,13.90473495,0.02175514027,0.02285615541,-0.01516135782
6.019037,-4.191583557,26.86852661,11.59937897,-0.6602191925,-0.446991235,-0.5167948604
6.029036,-3.291056213,22.05573486,8.835526428,-0.9634981155,-0.8018095493,-0.648550272
6.039034,-0.2574645996,14.67473373,7.284751282,-0.8569502831,-0.8828748465,-0.56844908
6.049032,1.2461586,9.224717102,7.040758667,-0.681478858,-0.5061605573,-0.4045256674
6.059031,2.017803955,6.164181519,6.467001801,-0.5202584863,-0.09277109802,-0.194016695
6.069029,3.532055054,4.362378387,5.703888702,-0.4269495904,-0.172394827,0.06658506393
6.079028,4.595443726,3.692671051,6.099965057,-0.4935456812,-0.3700530231,0.3174487352
6.089026,5.086273041,4.714595947,5.127736816,-0.526606977,-0.1974535733,0.6107110381
6.099024,5.880072327,7.83725235,1.458716583,-0.2915933132,-0.1148061082,1.171501517
6.109023,7.170987854,12.64929565,0.4644841003,0.1922026575,0.2768287659,1.379633069
6.119021,4.624483337,13.66777771,-2.275418243,0.2808345556,1.529565811,1.522863269
6.129020,3.652554474,13.7980069,-4.80081665,0.1923222691,2.864422798,1.60413301
6.139018,3.522774353,13.94979126,-4.481680298,0.4457031488,3.478238583,1.466274261
6.149016,2.777623901,15.17798721,-3.551963654,0.5947828889,3.030374527,1.152949929
6.159015,1.82650177,16.49764297,0.05792953491,0.6602939367,1.93197453,0.8272941113
6.169013,0.3600013733,16.27655273,1.933978271,0.9369590878,1.203704715,0.5714016557
6.179012,-1.104253693,13.13144302,-0.6288423157,1.128396511,1.167664051,0.4804990292
6.189010,-1.189127197,9.270072784,-1.447789307,1.289068699,1.449086189,0.5484070182
6.199008,-1.157692566,6.876400452,-2.699785767,1.482913852,1.882220864,0.7158766389
6.209007,-1.513352966,5.862708435,-4.725822601,1.69131422,2.384438276,0.9957783222
6.219005,-1.553319855,5.737269287,-5.998775482,1.886333346,2.707405329,1.246070623
6.229004,-1.080602875,5.56961792,-5.685027924,1.924262047,2.939010382,1.414369702
6.239002,-0.5438191223,5.41049881,-4.313729553,1.805068851,3.035375118,1.598518729
6.249000,-0.3504212952,6.328090668,-3.132535858,1.465840697,2.846701145,1.639054656
6.258999,-1.07057373,9.378746796,-2.203717346,0.8505860567,2.21086669,1.176121473
6.268997,-2.376757507,14.92037292,-1.354682922,0.2575402856,1.303189158,0.1343564391
6.278996,-3.805985413,18.22160797,-1.396895142,0.09621606022,0.6126698852,-1.030887842
6.288994,-4.326752472,16.35948029,-1.927391968,1.370180249,0.4886781871,-1.511089921
6.298992,-4.988526306,13.46539856,-0.2297721863,3.113338709,0.337626487,-1.147679687
6.308991,-5.158572693,11.2937146,2.785258026,3.843776226,0.09004944563,-0.8576268554
6.318989,-3.399580536,9.120234375,4.452940063,3.426896334,0.3881289363,-0.9243713617
6.328988,-0.6888674927,7.504344635,5.540727997,2.216649771,1.061348081,-0.896890521
6.338986,2.048939209,6.482569427,6.044879608,1.027682543,1.359483361,-0.5695617795
6.348984,3.082240448,6.002218323,5.253325653,0.4952239394,1.171668649,-0.240488261
6.358983,2.386038208,5.514981537,2.258054352,0.5707519054,0.9139477015,-0.01846125908
6.368981,2.283202057,5.752986603,-1.400936737,0.7832474113,0.7450745702,0.1334696859
6.378980,2.347568207,6.525081024,-3.047662354,0.8345873356,0.7306844592,0.2748914361
6.388978,1.464554443,7.19374054,-2.516417084,0.7821430564,0.7866867185,0.3756795526
6.398976,0.5460644531,7.798932037,-1.905687103,0.7085431814,0.9571264982,0.3956635892
6.408975,-0.2168989563,9.106612701,-1.485510864,0.7114921212,1.350084782,0.4180637002
6.418973,-0.9331594849,10.24215134,-1.347497864,0.7477741241,1.506628275,0.3961034417
6.428972,-1.832639008,10.38255936,-0.192948761,0.7385635972,1.339707136,0.2844560146
6.438970,-2.315385132,10.08722351,1.503024445,0.8066957593,1.062321305,0.1602908969
6.448968,-2.42795105,9.414223022,2.259551239,0.9190539718,0.8304803967,0.1375839859
6.458967,-2.142494659,8.997040558,2.399659882,0.956335485,0.6876468062,0.1931259036
6.468965,-1.730850677,9.160949707,2.065105591,0.9121291637,0.8629805446,0.1722017229
6.478964,-1.201850739,8.971144409,0.8300239563,0.8427482843,1.084641695,0.2006966621
6.488962,-0.6670129395,8.652008057,0.1950444031,0.8318045735,1.212222576,0.299705267
6.498960,-0.04610412598,8.42807373,-0.4207749939,0.8908627033,1.125333667,0.378446281
6.508959,0.2806663513,7.775580597,-0.7075785828,1.034100294,0.9271570444,0.4677117169
6.518957,0.7379653931,7.264543304,-0.7914042664,1.218660474,0.7333920002,0.5606738329
6.528956,1.216969299,7.12937439,-0.4649331665,1.348658919,0.5218552947,0.6600151062
6.538954,1.501527557,7.517068176,0.5272036743,1.38440299,0.3313818872,0.7451575398
6.548952,1.408121796,8.376580811,1.465751953,1.323945999,0.2642683685,0.8161640763
6.558951,0.9307644653,9.467961273,2.086960144,1.166138887,0.3243820369,0.8446542621
6.568949,0.01257385254,10.40650955,2.500250702,0.9059046507,0.5418672562,0.8022735119
6.578948,-1.151854706,10.84749252,2.630928955,0.5235979557,0.9045943022,0.6996353865
6.588946,-2.282453613,11.1317514,2.389930115,0.06847651303,1.328834534,0.5594644547
6.598944,-3.429667969,11.64623154,1.859133911,-0.2702276707,1.675177336,0.3802599609
6.608943,-4.639302521,12.30860413,1.070424042,-0.3347065151,1.667472482,0.1432348937
6.618941,-5.626799011,12.3832988,0.7432044983,-0.0758920908,1.259508967,-0.09582927823
6.628940,-5.825286255,12.0036882,0.6511459351,0.3359481692,0.5841246843,-0.2581439018
6.638938,-5.572911072,11.07232498,0.9493258667,0.6150004864,-0.1755579859,-0.3530183434
6.648936,-5.021607513,10.15458344,1.830693054,0.592888236,-0.7694975138,-0.4057960808
6.658935,-3.853736115,9.570048981,2.935545502,0.2802428603,-0.8539710045,-0.4817660749
6.668933,-2.351310425,9.876910858,3.465892639,-0.2246330976,-0.5628368855,-0.3641057312
6.678931,-0.4971162415,12.00024536,4.027075653,-0.7321331501,-0.5738120079,-0.141001448
6.688930,1.193318481,15.43215866,5.101391602,-1.076269507,-0.982578218,-0.005741372239
6.698928,1.776954803,18.74267441,4.671186218,-1.444513559,-1.435911655,0.1226229891
6.708927,1.250948639,19.9371904,2.851270752,-1.903984666,-1.857210159,-0.07360937446
6.718925,-1.826352081,17.84858368,0.9572593689,-2.244499445,-2.075810432,-0.5164205432
6.728923,-4.609963531,14.84118759,-1.226549377,-2.44631815,-1.871001959,-0.7350291014
6.738922,-3.798500977,11.79487244,-2.647095337,-2.649623394,-1.521813869,-0.7015573382
6.748920,-1.888173523,9.352401581,-2.466870117,-2.990340948,-1.122558951,-0.8230667114
6.758919,-0.8629554749,9.216334534,-1.526824951,-3.107857943,-0.7715642452,-0.9517588615
6.768917,0.902024231,11.90324707,-1.809287567,-3.10354495,-0.5388886333,-1.098598719
6.778915,2.738255768,13.6068544,-1.620230713,-3.07588315,-0.2840885818,-1.130865335
6.788914,3.958817596,14.46666641,-1.171463928,-3.01483655,-0.1764889061,-1.058925629
6.798912,4.36671936,15.03563324,-0.4905299377,-2.918440342,-0.3027945161,-0.9896822572
6.808911,3.900438995,15.4740715,0.2079176331,-2.81345892,-0.6555440426,-0.9891938567
6.818909,2.917732544,15.9930423,0.8967851257,-2.730160952,-1.03911078,-0.9994085431
6.828907,2.145488434,16.46590897,1.250649261,-2.681285381,-1.241071343,-0.8752506375
6.838906,2.020498352,16.79118256,1.228944397,-2.663552761,-1.225930691,-0.5604423285
6.848904,2.363435211,16.55482407,1.203347626,-2.655856371,-1.118862629,-0.1412341744
6.858903,2.521955566,15.40835815,1.27070755,-2.636892319,-1.065490842,0.1933117211
6.868901,2.157164154,13.00330948,1.427731018,-2.592742682,-1.075896859,0.4299471676
6.878899,1.869911499,10.25158173,1.394200745,-2.555197239,-1.004688263,0.5848547816
6.888898,1.453627167,7.963889008,0.9758207703,-2.413098812,-0.8470616937,0.4826751649
6.898896,0.149539032,6.828949127,-0.4200265503,-2.018691301,-0.9066433311,0.2799542248
6.908895,0.1502874756,7.130871277,-1.934876404,-1.090062261,-2.051922083,0.1043951735
6.918893,0.613125,7.53772522,-3.726051636,-0.3365112245,-3.265990973,-0.2836411595
6.928891,-0.7788304138,7.223229218,-4.056115265,-0.5789374709,-3.599735737,-0.8382721543
6.938890,-2.653232574,8.086035004,-1.00515976,-1.5719347,-2.788465261,-1.209798694
6.948888,-2.719844055,10.13931519,1.054107971,-1.965416551,-2.452623129,-1.229102373
6.958887,-1.58430542,10.07554779,0.2897973633,-1.93514359,-2.804929733,-1.180638671
6.968885,-1.340312805,8.930429077,-0.4541555786,-1.772907019,-3.247221231,-1.353770494
6.978883,-1.592238922,6.568939819,-1.54104538,-1.558716416,-3.05805254,-1.4130826
6.988882,-0.7610174561,4.690945129,-2.758763123,-1.21383059,-2.707011223,-1.215524554
6.998880,0.09430389404,3.804787903,-2.613864441,-0.9064625502,-2.5991714,-1.015319467
7.008879,0.7147636414,3.380570068,-1.752405853,-0.5712832212,-2.524783134,-0.9121842384
7.018877,1.41934845,3.14870224,-1.984872437,-0.1880266964,-2.445705652,-0.8995576501
7.028875,2.018702087,2.835703125,-2.200723572,0.1763368696,-2.1866467,-0.8407033682
7.038874,2.573448486,2.472558289,-2.346969452,0.56134516,-1.766956329,-0.7308715582
7.048872,2.42555603,1.839824066,-2.248773651,0.8917020559,-1.270386815,-0.6602013707
7.058871,1.719324646,1.055604858,-2.023941193,1.208551764,-0.7748696208,-0.6526165605
7.068869,0.8857081604,0.8470884705,-1.923799438,1.501588225,-0.2483086437,-0.6203315854
7.078867,1.170416107,0.8930429077,-1.270857239,1.795874238,0.1344611198,-0.5933523774
7.088866,1.71303772,0.9690847778,0.009729766846,2.068621397,0.3054839969,-0.62826401
7.098864,1.713935852,1.627116394,1.184935913,2.330706835,0.3608669639,-0.7387222648
7.108863,1.344953156,2.654430084,2.012265472,2.540942192,0.4701303542,-0.8221202493
7.118861,1.44269989,4.15730484,3.083737335,2.601389647,0.6048864722,-0.8393157125
7.128859,1.60301651,6.062991943,5.081782379,2.399943352,0.7867800593,-0.7145812511
7.138858,1.95643158,9.5923526,7.987240448,1.961395979,0.9545526505,-0.3060147166
7.148856,2.725831604,16.15410736,11.92644882,1.413987756,1.096420527,0.2666791677
7.158855,3.040776672,25.10205002,15.42691956,0.5842089057,1.137940407,0.4481196702
7.168853,0.649050293,31.56156738,16.00217331,-0.4276804328,0.4892076552,-0.253433913
7.178851,-4.492158508,28.50387589,14.91962448,-1.058187842,-0.3263798654,-0.6220944524
7.188850,-2.474055176,19.75681549,11.48366959,-1.103880405,-0.8066641688,-0.6013303399
7.198848,1.931433563,10.74600357,9.100625153,-0.8517696261,-0.9197413325,-0.4294941425
7.208847,3.018173676,5.240003357,8.181985474,-0.629491806,-0.6069194674,-0.1779932082
7.218845,3.374133453,3.368744659,6.413712616,-0.5582862496,-0.2363948375,0.10928455
7.228844,4.475093994,4.182003479,4.450245667,-0.5652091503,-0.07665337622,0.4807246625
7.238842,5.960305481,7.18550766,3.576662292,-0.6507858038,-0.174576506,0.8525777459
7.248840,6.359674988,12.16819611,3.747307434,-0.7427492738,-0.3808692098,1.180500269
7.258839,5.244943085,17.2392009,3.93037674,-0.7058147192,-0.1232167482,1.189577222
7.268837,3.23177948,18.6631897,1.668131104,-0.5906974673,0.7274723053,0.9600310922
7.278836,1.050814819,16.0288179,-1.386716309,-0.2611808479,1.913041234,0.7272325158
7.288834,0.4113446045,13.46494949,-3.923191681,0.1454510838,2.68563509,0.5508950353
7.298832,0.1097218323,10.62191162,-5.408702545,0.351595521,2.662717581,0.4117557108
7.308832,0.5800437927,8.513396301,-3.979175262,0.5842109323,2.260697365,0.3978886306
7.318830,1.937870178,8.391699371,-2.611319733,0.8882629871,1.700766206,0.4211950004
7.328829,2.252665558,7.952362976,-1.14901062,1.217858195,1.435335398,0.4708917141
7.338827,1.730102234,7.269483032,-1.578766937,1.55424428,1.560290456,0.6365197301
7.348825,0.8149053955,6.710994415,-3.577859802,1.82480526,2.044164419,0.9478318095
7.358824,-0.04969665527,6.873406677,-5.573659515,1.90029943,2.739898682,1.365349889
7.368822,-0.4275109863,7.577991486,-5.94638443,1.868252277,3.276575804,1.718173504
7.378821,-0.6114784241,7.251670074,-4.580474854,1.71419239,3.436038971,1.97347939
7.388819,-0.002544708252,6.999145203,-2.606230316,1.448113799,3.32613349,2.180299759
7.398817,0.2333647156,8.114176483,-1.453028412,0.9774625301,2.711642504,2.064337254
7.408816,-1.012344818,11.63395706,-0.856967926,0.3005628884,1.466491699,1.227599502
7.418814,-3.105741577,17.29832794,-0.4778063965,-0.2425495088,0.1669750214,-0.149254173
7.428812,-4.692891083,19.58347595,-1.076261902,-0.1802981198,-0.2662091851,-1.417225957
7.438811,-4.764442291,16.2145816,-2.405946808,1.404081583,-0.121414341,-1.728075266
7.448809,-5.077740784,12.71964935,-1.459315338,3.159928322,0.01340818871,-1.362458229
7.458808,-5.246290283,10.38749908,0.5378315735,4.146537304,-0.03335065395,-1.006456017
7.468806,-3.953578491,8.510552216,1.955982513,4.182922363,0.3817453682,-0.9157550931
7.478805,-2.068997498,7.195686493,2.79648468,3.381970406,1.15837121,-0.916806221
7.488803,0.4141886902,6.287225647,4.529131622,2.15520978,1.544526577,-0.7517355084
7.498801,1.938917999,6.090384979,6.430328064,1.181910753,1.332728386,-0.4416562021
7.508800,2.531535645,5.767207031,5.386398926,0.7682535648,0.943435967,-0.1118668467
7.518798,3.064726868,5.789510651,1.942660217,0.7583719492,0.8148137331,0.04920348153
7.528796,2.912044373,6.397695923,-1.127305756,0.7925754189,0.9746273756,0.1434103996
7.538795,1.945354614,7.870632935,-1.908231812,0.7391067147,1.176320553,0.2250633687
7.548793,0.4447251892,8.65515152,-1.252445526,0.6714912057,1.399464965,0.2852438688
7.558792,-0.7280859375,8.699160004,-1.191073151,0.7036414742,1.923433661,0.2721562386
7.568790,-1.560804291,9.335486755,-2.351609802,0.7976217866,2.436514616,0.2571085989
7.578788,-1.92484726,10.37522461,-2.075134735,0.862044096,2.52380085,0.1424505413
7.588787,-2.388882294,10.04935226,-0.2046244812,0.9960412383,2.253956318,0.06002304703
7.598785,-2.225721588,9.392518158,0.762664032,1.164210558,1.72133863,0.09137854725
7.608784,-1.672921143,8.908873901,1.50826355,1.303491235,1.055668473,0.1700296849
7.618782,-0.9704319763,8.001610565,2.022294617,1.326377749,0.573477447,0.1968534589
7.628780,-0.03053649902,7.290738831,1.779499512,1.254711032,0.4314316809,0.2680645287
7.638779,1.008303223,7.482490082,1.111438751,1.202646971,0.5609743595,0.4414078593
7.648777,1.843266907,7.828271027,0.2487826538,1.220958352,0.7103228569,0.6399952769
7.658776,2.04998703,7.824528809,0.112565918,1.227316022,0.6312735677,0.7951897383
7.668774,1.682351532,8.065677338,1.074465637,1.172979474,0.5212756991,0.8822319508
7.678772,1.050814819,8.4059198,1.585951996,1.070986629,0.462901324,0.9272668362
7.688771,-0.2930905151,8.906478882,1.713935852,0.949610889,0.499592483,0.9066886306
7.698769,-1.678759003,9.582772522,1.325343933,0.8662795424,0.6060678363,0.7914256454
7.708768,-2.512674866,10.11222153,0.8427474976,0.8176264763,0.7352796197,0.6203261018
7.718766,-2.754721527,10.55515045,0.7042854309,0.7736076117,0.8833858371,0.4632685483
7.728764,-2.583926697,10.97323105,0.887504425,0.6252110004,1.004366636,0.3309320807
7.738763,-2.701881409,11.64383652,1.464853821,0.3338640928,1.065758586,0.2524532676
7.748761,-3.254681854,12.2810614,1.950593719,0.01654551178,0.9752898812,0.1588474214
7.758760,-4.068838806,12.1934935,2.123484192,-0.09629093111,0.7172604203,-0.01110976189
7.768758,-4.675227814,11.63246017,1.887574768,0.03824903816,0.3191587925,-0.1663321108
7.778756,-4.701722717,11.13399673,1.569186859,0.1941090524,-0.05498151854,-0.2921324968
7.788755,-4.47793808,10.70004913,1.67322052,0.2086738795,-0.2728259563,-0.4044971168
7.798753,-3.8565802,10.25352768,2.293829956,0.07562950999,-0.2161601633,-0.4846656919
7.808752,-2.303110657,10.13183075,2.709814911,-0.191168353,0.02771588787,-0.3660463691
7.818750,0.2263293457,11.37170242,2.640059967,-0.6785606146,-0.1574453115,-0.08616814017
7.828748,1.760638733,14.15127228,3.833079071,-1.173557758,-0.9643061757,0.09726719558
7.838747,1.411864014,17.86190598,4.567601624,-1.585765362,-1.614219427,0.08244342357
7.848745,-0.6273454285,20.06427612,2.692151642,-2.037379742,-1.796534419,-0.2517595887
7.858744,-3.844605103,18.30498459,0.3803590393,-2.483740568,-1.700563312,-0.6797695756
7.868742,-5.494623871,14.60048813,-0.7050338745,-2.763285398,-1.521443129,-0.9491807818
7.878740,-4.835544434,11.83364182,-1.487456818,-2.806824207,-1.171506524,-0.943144381
7.888739,-2.562970276,10.11776001,-2.983445892,-3.010124207,-0.8528277278,-1.075365305
7.898737,-0.590072937,9.409133606,-2.259850616,-3.137929916,-0.5798792839,-1.222965956
7.908736,1.546733551,11.81612823,-1.995650024,-3.148487568,-0.4326421022,-1.373773813
7.918734,3.298241272,14.01236115,-1.729503479,-3.127537251,-0.3213964403,-1.382697701
7.928732,4.255500641,15.17499344,-1.046324158,-3.09079957,-0.3195298314,-1.294712186
7.938731,4.361480255,15.83661758,-0.1818717957,-3.011375189,-0.4889681339,-1.212286592
7.948729,3.835623779,16.50422928,0.5054988098,-2.874274492,-0.7930033803,-1.159656286
7.958727,2.926863556,17.33560043,1.10919342,-2.716335058,-1.081014037,-1.03199172
7.968726,2.392923889,17.92357773,1.46141098,-2.585968971,-1.196424723,-0.7351139188
7.978724,2.371368713,17.95950302,1.551224213,-2.503844976,-1.108537078,-0.2766025364
7.988723,2.60338623,17.30177078,1.439706116,-2.443721294,-0.9252290726,0.1824553162
7.998721,2.528990936,15.01692215,1.34330658,-2.406156778,-0.7983397841,0.4821740091
8.008719,1.916764069,11.68904251,1.486708374,-2.430968046,-0.6844017506,0.6162314415
8.018718,1.129251709,8.65859436,1.506467285,-2.347556114,-0.5834816694,0.4014406502
8.028716,-0.6358776855,6.493496704,0.1895059204,-2.126309633,-0.6004114151,0.07522177696
8.038715,-0.9425898743,6.31027771,-1.025966492,-1.420005798,-1.584180713,-0.1899692863
8.048713,-0.3791615295,6.642736359,-2.838247833,-0.5477510691,-3.111538172,-0.5025538206
8.058711,-0.6487509155,7.31064743,-4.677622833,-0.743281424,-3.317382336,-0.8489612937
8.068710,-1.636247406,8.008795624,-3.390449524,-1.672466516,-2.792062521,-1.093814731
8.078708,-2.151475983,8.75110199,-1.234033813,-2.255306482,-2.348213196,-1.038414836
8.088707,-1.746867371,9.989776154,-0.5746549988,-2.289656639,-2.334604025,-1.003573775
8.098705,-1.160237274,8.928333435,-1.168021088,-2.130814791,-2.809827089,-1.106931806
8.108703,-1.561103668,7.49326767,-1.364113312,-1.93837142,-3.276373625,-1.38672936
8.118702,-1.760339355,5.964496765,-1.841470642,-1.656220555,-3.288109779,-1.42750597
8.128700,-0.3882925415,5.278922424,-1.941762085,-1.320486784,-3.477604389,-1.167540431
8.138699,0.5912704468,4.04144577,-0.90681427,-0.8055918813,-3.468083382,-1.007751226
8.148697,1.355581055,3.012335815,-1.249451752,-0.1983637512,-3.294962168,-0.956461668
8.158695,2.087858276,2.800975342,-1.916165314,0.3058844209,-2.988445044,-0.8665109277
8.168694,2.695145416,2.489024048,-1.879042511,0.7226603627,-2.519286156,-0.714579165
8.178692,2.77313324,1.546733551,-1.877545624,1.086361885,-1.997388244,-0.5839315057
8.188691,1.767823792,0.4122427368,-1.904639282,1.414706469,-1.323014021,-0.5191375613
8.198689,0.5004093933,0.1357676697,-2.324216766,1.705429435,-0.5663735867,-0.482514888
8.208687,0.2263293457,0.3845503235,-2.316582642,1.91810894,0.1011115387,-0.4321675599
8.218686,0.8249345398,0.6566844177,-1.232237549,2.105073929,0.5301247835,-0.3888412714
8.228684,1.534309387,0.963097229,0.1555265808,2.316740751,0.8231776953,-0.3709637523
8.238683,1.808090057,1.535806274,1.171463928,2.550838709,1.077614665,-0.4194002151
8.248681,1.843416595,2.520758057,2.187101898,2.745055676,1.216736078,-0.5067284703
8.258679,2.02543808,4.052073669,3.778891754,2.756528378,1.046792626,-0.4479671419
8.268678,2.945874023,6.536906433,6.6952771,2.566916227,0.4421612918,-0.1286267042
8.278676,3.82619339,11.29326553,9.867630157,2.304718971,0.2561779618,0.5261885524
8.288675,5.167404327,20.02490799,12.2837558,1.69686842,0.9721909165,1.102382064
8.298673,4.778513031,30.77689911,14.41487411,0.3704043627,1.417584538,0.6991055012
8.308672,-2.27586731,36.63706284,15.08353363,-0.9195908904,0.5050721169,-0.43591699
8.318670,-8.49243988,30.09955765,13.43111984,-1.526827574,-0.352534771,-0.825450182
8.328668,-2.531236267,18.48520981,10.38285873,-1.377266884,-1.044896126,-0.9070624709
8.338667,2.943778381,8.603957977,9.597142639,-0.9829505086,-1.217661858,-0.7522160411
8.348665,4.542603607,2.789748688,8.249195709,-0.6946151257,-0.7627760768,-0.3431497216
8.358664,5.348677368,1.617985382,5.056934052,-0.621088028,-0.2826275527,0.1602655947
8.368662,6.95259201,4.205205231,3.59806778,-0.7815730572,-0.06644786149,0.8413799405
8.378660,8.543633423,9.997859344,3.625909882,-0.8098050952,-0.3650200963,1.356283665
8.388659,6.320157166,15.65908676,3.150049438,-0.9724757671,-0.5415796638,1.638834119
8.398657,4.325105896,18.24151657,2.531984711,-0.9108072519,0.1100421846,1.471323371
8.408656,1.121767273,15.53304886,-0.8319699097,-0.6153614521,1.053269386,1.105456471
8.418654,0.1948947144,12.50469635,-2.574047241,-0.1869062632,1.832161069,0.822861433
8.428652,0.8211923218,10.6527475,-3.724704437,0.2364282161,2.302871943,0.5843170285
8.438651,0.8881031799,7.947572937,-4.325704651,0.5754226446,2.27276516,0.5026054978
8.448649,1.558708649,7.642207947,-2.800376587,0.8982537389,1.847283125,0.5681432486
8.458648,2.242187347,8.868008881,-1.313069458,1.214316607,1.557325244,0.6980597973
8.468646,1.586700439,8.947343903,-1.981728973,1.489581704,1.639425397,0.8894355893
8.478644,0.3088078308,8.219257965,-3.829037476,1.738967776,1.890871882,1.135848284
8.488643,-1.028361511,7.626939697,-5.245392151,1.845783114,2.200567245,1.446391702
8.498641,-1.888921967,7.596702576,-5.474715271,1.845368981,2.474866152,1.776259065
8.508640,-2.329755249,7.553442535,-4.96113327,1.759051919,2.542835236,1.983997345
8.518638,-2.181713104,7.194189606,-3.592678986,1.591555476,2.380881548,2.066677809
8.528636,-1.562001801,7.736362152,-2.710114288,1.280683637,2.116430521,1.909431577
8.538635,-2.170636139,10.75857742,-2.392175446,0.8144391775,1.49143362,1.157464504
8.548633,-3.810176697,15.46464111,-1.829645233,0.4460009038,0.6776471734,-0.1299789846
8.558632,-5.2606604,18.09766571,-2.035616913,0.5274825096,0.3467358053,-1.459989786
8.568630,-5.322032776,15.79455505,-2.789299622,1.256402969,0.4550811946,-2.235134363
8.578628,-4.310885468,12.32985992,-2.041005707,2.98601985,0.876091063,-1.920083761
8.588627,-3.896247711,10.80827408,0.8011340332,4.163013935,0.9774573445,-1.37387073
8.598625,-2.311642914,9.381291504,2.942281494,4.312506199,1.368041992,-1.179041028
8.608624,0.1025367737,8.544980621,4.976251831,3.360328436,2.0678339,-1.139870763
8.618622,2.846480713,8.128845978,7.560328217,1.925393939,2.292497396,-0.8644839525
8.628620,3.970792694,7.676786041,8.04202652,0.7912794948,1.787662268,-0.4963066876
8.638619,3.485950928,6.969656525,6.237229614,0.3944896162,1.359146833,-0.2288451791
8.648617,2.956202545,6.964716797,1.162632294,0.5530555248,1.196495056,-0.08212897927
8.658615,2.291135559,7.106472015,-2.722089386,0.7533323765,0.9341980219,0.009816152975
8.668614,1.696272583,7.411387939,-3.14750473,0.7834529877,0.9397243261,0.1195077673
8.678612,1.229543152,7.573500824,-3.052153015,0.6505088806,1.185506701,0.1982301772
8.688611,0.398770752,7.631130981,-2.481240234,0.5712846518,1.655626297,0.2886146903
8.698609,-0.06152206421,8.134534149,-2.755020905,0.5992050767,2.197548628,0.3471913934
8.708607,-0.4462220764,9.076674957,-2.440524902,0.6450625658,2.491193533,0.3161527812
8.718606,-1.224902802,9.90355545,-0.7484436035,0.7631812692,2.427473068,0.2193859667
8.728604,-1.970652008,9.511520691,0.8054750061,0.9782916903,2.108478785,0.1914768368
8.738603,-2.089953918,8.785530396,1.789977722,1.204983115,1.640377283,0.2659531832
8.748601,-1.860181732,8.50067276,2.258054352,1.32709837,1.176215529,0.3607484102
8.758599,-1.634750519,8.453221436,1.816173248,1.297506332,0.9275158644,0.4355586767
8.768598,-1.240769806,8.409063263,0.7667056274,1.198889971,0.9109973907,0.483520329
8.778596,-0.7818241882,8.07241333,0.0339793396,1.128739119,0.9608341455,0.5308585763
8.788595,-0.5490582275,7.813002777,-0.1353186035,1.140257478,0.9756677151,0.5885410309
8.798593,-0.4034111023,7.707172852,-0.1374142456,1.237084627,0.9148115516,0.64193964
8.808591,-0.259410553,7.698490906,0.1383123779,1.338892698,0.7111169696,0.6560115218
8.818590,-0.3227288818,7.828570404,0.9885443115,1.416283488,0.4303862453,0.6693136096
8.828588,-0.3441343689,8.606652374,1.556912384,1.381614447,0.2267963737,0.6523357034
8.838587,-0.3311114502,9.679321747,1.737436981,1.245297194,0.1903785765,0.6122359633
8.848585,-0.4308041382,10.5584436,1.843117218,1.020863771,0.2551178932,0.5454513431
8.858583,-0.8824150085,11.36212234,2.404599609,0.7220349312,0.4020952284,0.542652905
8.868582,-1.344803467,11.34670441,2.935994568,0.4115082026,0.7133947611,0.5888068676
8.878580,-1.969604187,10.90362579,2.695295105,0.08582919091,0.9611465335,0.5623400807
8.888579,-3.237767029,10.85632416,2.514620819,-0.1781353503,0.9825450182,0.436751008
8.898577,-4.580474854,11.27530289,2.103425903,-0.2247354984,0.7466135025,0.1978967637
8.908575,-5.448519745,11.85355042,1.370998993,-0.05420184135,0.3215106428,-0.03878502175
8.918574,-5.53219574,12.13496521,0.8734336853,0.130222708,-0.08928354084,-0.2088365108
8.928572,-5.081333313,11.78589111,0.9598040771,0.08603687584,-0.3090420067,-0.2871592641
8.938571,-4.365372162,11.46450943,1.465751953,-0.1970563978,-0.3108665645,-0.2723264992
8.948569,-3.394191742,11.76448563,1.787732391,-0.634835124,-0.2607573271,-0.1830160469
8.958567,-2.003583527,12.30396378,2.100432129,-0.9668018818,-0.5437455773,-0.2258060575
8.968566,-0.8063731384,14.162948,2.48992218,-1.189192533,-1.161156297,-0.2465518266
8.978564,0.05643264771,18.69492371,2.489473114,-1.532434225,-1.767275095,-0.2050394118
8.988563,0.3116519165,20.27264282,2.017953644,-1.95947659,-2.116739273,-0.3463946581
8.998561,-1.027912445,17.34607864,1.2753479,-2.425420046,-2.073922634,-0.656909883
9.008559,-2.663710785,13.67765717,0.1267863464,-2.780411482,-1.708868504,-0.7602311969
9.018558,-2.498304749,10.18092865,-1.329834595,-2.994530439,-1.385318041,-0.7839309573
9.028556,-2.235601044,7.673941956,-1.873054962,-3.136203051,-1.048402429,-0.9513902664
9.038554,-1.488804016,8.687633972,-1.926194458,-3.150393009,-0.7911832333,-1.133547306
9.048553,0.5146298218,11.87061493,-1.966460724,-3.139251947,-0.7082419991,-1.246661663
9.058551,2.301164703,13.88991577,-1.409768372,-3.114372253,-0.642364502,-1.253939748
9.068550,3.307372284,15.02889725,-1.135239258,-3.044826746,-0.5665701032,-1.182591796
9.078548,3.392395477,15.56418411,-0.9280700684,-2.948100567,-0.674356997,-1.1204319
9.088546,2.628234558,16.11593674,-0.357456665,-2.828761578,-0.9766540527,-1.047199726
9.098545,2.00313446,17.13202377,0.2799179077,-2.720896482,-1.251417994,-0.834010303
9.108543,1.983974304,17.77164368,0.4120930481,-2.649268866,-1.416767716,-0.4648317397
9.118542,2.211800537,17.86115753,0.3951782227,-2.545169353,-1.465885878,0.03030236997
9.128540,2.616409149,17.33230728,0.302820282,-2.4306705,-1.490400314,0.5049058795
9.138538,2.769391022,15.38530609,0.5056484985,-2.322753906,-1.497499585,0.7729038
9.148537,2.300266571,12.69315445,0.602946167,-2.271553755,-1.482951045,0.8446472287
9.158535,1.794767761,10.25412643,0.6146218872,-2.155902386,-1.546915054,0.6571153402
9.168534,0.6438111877,8.114924927,-0.2284249878,-1.946544886,-1.416826367,0.4029949009
9.178532,0.5569917297,7.607480164,-1.560654602,-1.380764604,-1.961312294,0.2295776755
9.188530,1.07536377,7.614515533,-2.703977051,-0.525620997,-3.317564011,-0.08321672678
9.198529,0.3179388428,7.826774139,-3.5102005,-0.6466859579,-3.97445488,-0.5065261126
9.208527,-1.22385498,7.883955231,-0.6927593994,-1.659473419,-3.152205706,-0.8580258489
9.218526,-1.344504089,8.957073669,0.972228241,-2.300997734,-2.15181303,-0.9998959303
9.228524,-1.206790466,9.677675171,0.3330574036,-2.197028875,-2.061702728,-1.032957792
9.238522,-0.9110055542,8.95348114,-0.252973938,-1.764553428,-2.455142498,-1.228371382
9.248521,-1.092278595,6.666087799,-1.386416931,-1.46579659,-2.483452559,-1.389287233
9.258519,-0.722996521,4.834646301,-1.951192474,-1.235720992,-2.449112177,-1.225931287
9.268518,0.3607498169,3.901486816,-1.236129456,-0.9348311424,-2.646785736,-0.9892044067
9.278516,0.4803511047,2.826721802,-1.086440735,-0.5564560294,-2.680901527,-0.8581323028
9.288514,0.5918692017,2.141895905,-1.963916016,-0.1457609087,-2.652900696,-0.7965940833
9.298513,0.9845027161,1.870360565,-2.276615753,0.1841962487,-2.620701313,-0.7208220363
9.308511,1.665736084,1.795216827,-2.080074463,0.4761479497,-2.502106905,-0.6091349125
9.318510,1.758243713,1.575623474,-2.0968396,0.7845320702,-2.120718718,-0.5297164917
9.328508,1.003213806,1.212927704,-2.14009964,1.070754766,-1.505169868,-0.5023050904
9.338506,0.5077441406,0.6839277649,-1.902693329,1.354698896,-0.8773072362,-0.5044562221
9.348505,0.2773731995,0.3945794678,-1.47428421,1.61720109,-0.3601269126,-0.5190684199
9.358503,0.5498066711,0.3879931641,-0.7411088562,1.871120572,0.004688872024,-0.5645509958
9.368502,1.064137115,0.7884104919,0.2511776733,2.126538277,0.2479518503,-0.6558694839
9.378500,1.32459549,1.617835693,1.046922913,2.3642838,0.4500767291,-0.7812662125
9.388498,1.398092651,2.83749939,1.719174957,2.513741255,0.6045315266,-0.8719625473
9.398497,1.816472626,4.701722717,2.762954407,2.462360382,0.602237761,-0.8428854346
9.408495,2.351011047,7.145091705,5.181624756,2.146724224,0.5075882077,-0.7032809258
9.418494,2.890339508,11.26497437,8.630153503,1.672850966,0.4671758413,-0.3781208098
9.428492,3.694766693,18.28537537,12.58567795,1.174925566,0.7228714824,0.03576476872
9.438490,3.3920961,28.37918518,14.98339188,0.4107390642,0.6736747026,-0.04621511698
9.448489,-0.6891668701,35.15813828,16.0235788,-0.435079813,0.1750702262,-0.7651718855
9.458487,-5.303770752,30.27783691,13.26960571,-1.0323596,-0.3909693956,-1.033627868
9.468486,-2.042502594,19.61086899,9.30450119,-1.209451079,-0.9798467755,-0.8881720304
9.478484,2.592159576,10.61233154,7.920030212,-1.061557055,-1.181410789,-0.5296571255
9.488482,4.311633911,5.110073547,6.792275391,-0.7311570644,-1.017037034,-0.1679076999
9.498481,4.799918518,3.96660141,5.146896973,-0.4983120263,-0.6935184598,0.1332209408
9.508479,5.934109955,4.924010468,3.305276642,-0.4458509386,-0.4986174107,0.5604428649
9.518478,7.536677399,7.446564789,3.066672821,-0.3654227257,-0.7210669518,1.194898367
9.528476,8.018525391,13.11662384,4.559368744,-0.4493516982,-0.9289269447,1.573590755
9.538474,5.438041534,18.31740875,5.832621002,-1.132322192,-0.8907369971,1.560237169
9.548473,2.816842346,21.23933258,5.154531097,-1.315425158,-0.01050738618,1.330653429
9.558471,-0.1752854919,20.47921326,-1.930086365,-0.7141894698,1.407326341,0.9340407252
9.568470,-1.430724792,13.41121124,-8.078550568,-0.1728223711,2.586839199,0.4462574124
9.578468,-0.2251318359,5.667364655,-7.54820343,0.3630603552,3.00919652,0.1752631068
9.588467,2.770289154,2.80352005,-6.156846771,0.7619081736,2.772992611,0.1449014843
9.598465,5.129533081,3.903582458,-2.646047516,0.9903185964,1.804537535,0.301659137
9.608463,5.790558472,5.190905457,1.705403595,1.180685878,1.131058693,0.5682487488
9.618462,4.610711975,5.141957245,1.288670197,1.489330053,1.386061907,0.9414277673
9.628460,2.317031708,5.460644531,-2.969375153,1.919503212,2.049785852,1.355152369
9.638458,-0.288899231,6.327192535,-6.544540558,2.240539551,2.692806721,1.755833149
9.648457,-2.282303925,7.546556854,-7.491172028,2.216870546,3.187251806,2.213466406
9.658455,-2.581381989,8.847651215,-5.888903961,2.013216972,3.46568346,2.547384024
9.668454,-2.513123932,9.074429626,-4.193978577,1.547300935,3.621727705,2.588972092
9.678452,-2.670596466,10.65379532,-3.029550018,0.8564208746,3.064270735,1.998274803
9.688450,-3.921844482,15.41748917,-1.963616638,0.1713746041,1.719972372,0.5622038245
9.698449,-5.654341736,19.04744064,-1.129700775,0.0748232305,0.6416137815,-0.9984337687
9.708447,-6.360872498,18.23118805,-1.45437561,1.143717289,0.1060654372,-1.822124124
9.718446,-6.681655426,15.2989357,-0.1410067749,2.47908473,-0.411177963,-1.975639701
9.728444,-6.010900269,11.81912201,1.390159149,3.442302465,-0.8429279923,-1.804582953
9.738442,-5.017715607,9.158554688,1.791474609,3.907330275,-1.109087348,-1.394928694
9.748441,-3.825594635,7.801177368,2.459235992,3.743000984,-0.5709148645,-1.147772074
9.758439,-1.437161407,6.562353516,3.531456299,2.994649887,0.4458979964,-1.076998711
9.768438,1.693578186,6.132896576,5.623056793,1.971916556,1.441368461,-0.9514362216
9.778436,3.748504944,6.432274017,5.603896637,1.212426782,1.930619001,-0.7076312304
9.788434,3.859573975,7.248975677,3.665577393,0.9186452627,1.990190148,-0.4618408978
9.798433,3.256927185,7.440427551,0.7143145752,0.9380614161,1.627410769,-0.2559401095
9.808431,3.048410797,7.369475098,-1.830992432,0.9523413181,1.124560118,-0.155207634
9.818430,2.772235107,6.875202942,-2.840642853,0.8534883261,0.6679151654,-0.003721540328
9.828428,2.25595871,6.761589203,-2.884052582,0.6594021916,0.760649085,0.1257152855
9.838426,1.651964722,7.669301605,-3.195704498,0.5853856206,1.281656742,0.2418820113
9.848425,1.049018555,8.554411011,-3.710484009,0.6948492527,1.714314699,0.2938945889
9.858423,0.3739224243,9.707163849,-3.212918701,0.8136683106,1.711227417,0.1816240698
9.868422,-0.6709048462,10.66157913,-1.165775757,0.9541960955,1.461010695,0.003672977211
9.878420,-1.332828369,10.64675995,0.2679428101,1.16651082,1.236945271,-0.07049187273
9.888418,-1.346300354,10.30217651,0.9148974609,1.396988988,1.08164537,-0.02440427244
9.898417,-1.235530701,9.337881775,1.495839386,1.518831253,1.039864182,0.09452834725
9.908415,-1.120120697,8.289761353,1.656754761,1.423906565,1.032392383,0.1780224442
9.918414,-1.006656647,7.718698883,1.728006592,1.161230564,1.039357185,0.1898480505
9.928412,-0.6095324707,7.488926697,1.526824951,0.9076100588,1.057730556,0.2199612111
9.938410,-0.1856140137,7.738308105,1.120120697,0.7973853946,1.07705307,0.3226797283
9.948409,0.1121168518,8.283324738,0.6843768311,0.8364856839,1.004871011,0.4489271343
9.958407,-0.04640350342,8.689729614,0.5499563599,0.9122005105,0.7567839026,0.527882874
9.968405,-0.612077179,9.151070251,0.816252594,0.9733759761,0.3437183201,0.5367783904
9.978404,-0.8822653198,9.359287262,1.019978943,1.0382967,0.005628563464,0.4906373918
9.988402,-0.6041436768,9.49295929,0.7560777283,1.06333971,-0.1656023115,0.4142843187
9.998401,-0.3844006348,10.00684067,0.7132667542,1.064809084,-0.2146717161,0.3393215537
10.008399,-0.2766247559,10.14185989,1.395547943,1.048512697,-0.05071765929,0.322481066
10.018397,-0.02155517578,9.890831909,2.212998047,0.868902564,0.2886361778,0.36368379
10.028396,-0.1001417542,10.06012985,2.92985733,0.4389389157,0.6713465452,0.4401250482
10.038394,-1.203647003,10.43435165,3.261567535,-0.141223982,0.9378142953,0.4439620674
10.048393,-3.127895508,10.70124664,3.461851044,-0.6185897589,0.9597651362,0.2952783108
10.058391,-5.15662674,11.05795486,3.528612213,-0.70736444,0.7063308954,-0.002712516114
10.068389,-6.208639069,11.61689255,2.934347992,-0.4915860891,0.4064131677,-0.2789699435
10.078388,-5.795348511,12.10472809,1.930984497,-0.3861537576,0.2455366403,-0.4116865993
10.088386,-4.34920578,12.3740181,1.255888367,-0.5773660541,0.2713378966,-0.390321672
10.098385,-2.729873199,12.16714828,0.734223175,-1.003249645,0.3091210723,-0.3721461892
10.108383,-1.662592621,11.69817352,0.3516188049,-1.338593602,-0.408836782,-0.3786738515
10.118381,-1.198407898,15.50236267,1.337468719,-1.60480237,-1.76670897,-0.1737522036
10.128380,-0.4805007935,21.0347081,1.769919434,-1.831131697,-2.5788095,-0.2662028074
10.138378,-1.247056732,20.90672424,-0.5840853882,-1.972223401,-2.623269796,-0.612314105
10.148377,-2.103725281,17.64216293,-1.830094299,-2.347660065,-2.226606369,-0.7695119977
10.158375,-1.25199646,13.47617615,-0.9915380859,-2.930736303,-1.594186306,-0.7404962182
10.168373,-0.7150630188,9.93169693,-0.6396199036,-3.339291811,-1.001366138,-0.7769386172
10.178372,-0.8409512329,10.05728577,-1.116827545,-3.413198948,-0.5380228758,-0.9135766625
10.188370,0.5861810303,12.53463409,-2.004930725,-3.328932285,-0.2829868495,-1.028924823
10.198369,2.28634552,14.18704788,-2.035317535,-3.227909088,-0.158802852,-1.039330482
10.208367,3.302432556,15.11616577,-1.640289001,-3.129354715,-0.08025529981,-0.9186468124
10.218365,3.780388641,15.88317078,-1.319506073,-2.978616953,-0.1662287712,-0.7522375584
10.228364,3.595822449,17.37377106,-0.9225315857,-2.765739918,-0.4365119338,-0.515250802
10.238362,3.198847961,19.0532785,-0.3152444458,-2.515986681,-0.7397540212,-0.1728712022
10.248361,2.984044647,19.30490524,0.135617981,-2.26946497,-0.9921428561,0.211129725
10.258359,2.674338684,18.08254715,0.6114784241,-2.089071512,-1.05177176,0.5636432171
10.268357,2.380499725,15.51493652,0.8454418945,-2.046630144,-0.9795817733,0.8169173002
10.278356,2.153871002,12.26055405,1.224453735,-2.092975855,-0.8297809362,0.915682137
10.288354,1.475332031,9.596693573,1.321302338,-2.213445902,-0.6654630899,0.869715929
10.298352,0.793200531,7.851023712,1.147513733,-2.368458748,-0.4490678608,0.7645236254
10.308350,0.8348139954,6.312972107,0.5342390442,-2.483044624,-0.1716777831,0.6019996405
10.318348,0.9723779297,5.464835815,-0.5201683044,-2.2864182,-0.3864276111,0.3984203041
10.328347,1.031055908,5.453609161,-1.7995578,-1.455788732,-1.563482523,0.06059112027
10.338345,-0.05882766724,5.59656189,-4.026327209,-0.3682951629,-3.137601137,-0.3878843188
10.348343,-1.14781311,6.579268341,-5.218148804,-0.5578568578,-3.62360096,-0.7555099726
10.358342,-1.970951385,8.179740143,-0.5575904846,-1.680264115,-2.737573385,-0.9589864612
10.368340,-2.63856308,9.700278168,2.484533386,-2.243770599,-1.858573794,-0.9699986577
10.378339,-2.516267395,9.247320099,1.154100037,-2.089622498,-1.97007215,-1.10382092
10.388337,-2.207758942,7.598798218,0.4032614136,-1.863850236,-2.642725468,-1.168575883
10.398335,-1.726809082,6.223607941,-0.1625619507,-1.582049251,-2.739060163,-1.197967172
10.408334,-1.13029953,4.299808502,-1.919757843,-1.266818166,-2.616317034,-1.048848033
10.418332,-0.3420387268,2.832859039,-2.243684235,-0.9145900607,-2.634695053,-0.9511588216
10.428331,0.1308279419,2.097138977,-1.70480484,-0.4686934948,-2.641824722,-1.005293965
10.438329,0.6514453125,2.263143768,-1.65450943,0.06385846436,-2.577005386,-1.084162831
10.448327,1.028810577,2.858455811,-2.108066254,0.4547803998,-2.456216335,-1.064886093
10.458326,1.092727661,3.292553101,-2.068249054,0.7144649625,-2.102864265,-0.9494201541
10.468324,0.9862989807,3.03164566,-2.311493225,0.9688152075,-1.515596032,-0.8368240595
10.478323,0.5369334412,2.204016724,-2.444117432,1.239619017,-0.9211964011,-0.8178515434
10.488321,0.08292755127,1.42862915,-1.974543915,1.499936104,-0.3711598516,-0.8131864667
10.498319,0.3725752258,1.244212646,-1.187779999,1.778176308,-0.05769380182,-0.8876469135
10.508318,0.3014730835,1.392105103,-0.08592132568,2.046543837,0.1528423876,-0.9603277445
10.518316,0.4694238281,2.049537964,0.7393125916,2.292170048,0.3136353791,-1.019510269
10.528315,0.7560777283,3.007994843,1.586700439,2.42347455,0.4745281339,-1.096360803
10.538313,0.8574169922,4.27076889,3.106490021,2.349994183,0.7361590862,-1.110992789
10.548311,1.208287354,6.494245148,5.41977951,2.044095516,1.049101591,-1.035716653
10.558310,1.483115845,10.37522461,8.964558105,1.688571811,1.406047106,-0.739418447
10.568308,2.231709137,17.2577623,12.47835114,1.443565488,1.777149558,-0.347087115
10.578307,2.833757172,26.39880341,14.3129361,0.9181910753,1.599585772,-0.110164009
10.588305,1.035845947,31.93998047,15.84215607,-0.01867461577,0.4130095541,-0.426461786
10.598303,-3.054997101,26.29342255,15.55550217,-0.8171886802,-1.017468452,-0.6605585814
10.608302,-2.278711395,17.26419891,12.28914459,-1.146232367,-1.783746958,-0.440079689
10.618300,1.682950287,11.25763962,9.319320374,-1.081576347,-1.90871489,-0.1392957717
10.628299,2.398761749,6.869963837,7.194189606,-0.8589991927,-1.521661758,0.1381962895
10.638297,2.359094238,4.844226379,5.202730865,-0.6212583184,-1.093956709,0.347317636
10.648295,3.33820816,4.87102066,3.791465607,-0.4732408822,-0.7425047755,0.5885172486
10.658294,4.857249298,6.849905548,3.235072632,-0.3855499327,-0.6781899333,0.9269432425
10.668292,6.066135406,11.57288406,4.020489349,-0.4403908253,-0.6545887589,1.195134997
10.678291,4.556973724,17.10687607,4.536915436,-0.7635205388,0.00575455837,0.9960055351
10.688289,0.5144801331,18.69537277,3.010090485,-0.8243583441,1.252676964,0.6759865284
10.698287,-1.175056458,18.91451706,-2.499202881,-0.2756329775,2.766854048,0.5543136597
10.708286,-0.5966592407,17.20357498,-9.005572815,0.1137382239,4.028187275,0.3889481425
10.718284,0.04011657715,12.03781723,-10.16581009,0.2902592719,4.166733742,0.2253644466
10.728283,1.386416931,7.902067566,-6.856342163,0.4814225733,3.334180355,0.2078038305
10.738281,3.159330139,6.76188858,-2.995271301,0.6340170503,1.65051055,0.233875528
10.748279,4.597838745,6.547983398,3.263962555,0.8147668242,-0.03500647098,0.4541367888
10.758278,5.633684692,5.581443329,5.164859619,1.073485732,-0.3828484714,0.8194312453
10.768276,3.90343277,4.828808441,-0.4808001709,1.33646965,0.3141671121,1.310737252
10.778275,2.280208282,5.391937408,-4.842729492,1.538783908,1.460207582,1.752988458
10.788273,0.7363188171,6.030509491,-6.162534943,1.480192423,2.370548248,2.047045231
10.798271,-0.1968406677,6.40622818,-4.553381195,1.367007732,2.763263464,2.253624916
10.808270,0.06541397095,6.728058929,-3.440146179,1.184528708,2.820776939,2.321480989
10.818268,-0.3207829285,7.999365234,-2.727178802,0.7309393287,2.327445984,1.953229308
10.828267,-1.711091766,12.80781601,-1.917063446,0.1693998426,1.160114765,0.7453427911
10.838265,-3.893553314,19.29831894,-1.872456207,-0.05316931382,0.2124203593,-0.8082944751
10.848263,-5.074447632,20.34419403,-2.625989227,0.8694239855,-0.1504289359,-1.882919431
10.858262,-5.452261963,16.17057312,-2.871478729,2.923959017,-0.4796575308,-1.804977655
10.868260,-5.921386414,13.37738159,0.4532574463,4.085951805,-0.9221987128,-1.580707788
10.878259,-5.210814056,10.36175262,2.003284149,4.411279678,-1.06032598,-1.338265061
10.888257,-4.044289856,8.303083649,2.78016861,3.826754332,-0.2905949652,-1.167202234
10.898255,-1.223705292,6.925797729,3.985462189,2.608163357,0.7877113819,-0.8742367029
10.908254,1.738634491,6.002218323,5.512137451,1.470567822,1.477087855,-0.5407828093
10.918252,2.700683899,6.09727066,4.935985565,0.818659842,1.738410115,-0.3382782936
10.928251,2.533032532,6.760242004,3.189267883,0.5543195605,1.655135512,-0.2146282345
10.938249,2.39636673,7.120243378,1.210233307,0.4818347991,1.552362204,-0.1183705181
10.948247,2.479144592,7.316634979,-0.3528163147,0.432995379,1.628601313,-0.01021075621
10.958246,2.480192413,7.51197876,-1.199605408,0.321441859,1.836200833,0.1118688956
10.968244,2.117197266,8.385861511,-1.421593781,0.1986813098,1.965637922,0.209407419
10.978242,1.672322388,9.595795441,-1.216819611,0.2500115335,2.022172928,0.2683134675
10.988241,1.099164276,9.865235138,-1.462907867,0.5254388452,1.92318821,0.2739897072
10.998239,0.5532495117,9.398954773,-1.42862915,0.902422905,1.676029325,0.2820699513
11.008238,-0.03637435913,8.997190247,-0.9927355957,1.212138176,1.383953214,0.2999006212
11.018236,-0.8845106506,8.779393158,-0.3592529297,1.406407595,1.066463828,0.3361397684
11.028234,-1.612746277,8.241262207,0.1288819885,1.491645575,0.8195648789,0.3798150718
11.038233,-2.020648041,7.672894135,0.06212081909,1.462938786,0.6572495699,0.4168809354
11.048231,-1.947300568,7.700137482,-0.1351689148,1.403163552,0.6286901236,0.4416302443
11.058230,-1.218466187,7.630232849,-0.5111869812,1.363840699,0.6403528452,0.4834323227
11.068228,-0.6197113037,7.758965149,-0.4113446045,1.39303875,0.6438959241,0.5298951268
11.078226,-0.4845423889,8.42927124,-0.09864486694,1.473648071,0.5560262203,0.5604537129
11.088225,-0.7939489746,9.253607025,0.599203949,1.510453701,0.378397882,0.5559883714
11.098223,-1.124761047,9.761351166,1.524729309,1.466023445,0.2193299234,0.4662569463
11.108222,-1.298699341,9.742490387,2.344724121,1.340295076,0.1741328835,0.3394779861
11.118220,-0.9386979675,9.355545044,2.972967682,1.154933691,0.3689441979,0.2558737695
11.128218,-0.1528321838,9.260792084,3.118165741,0.8907926679,0.7411862016,0.3002497554
11.138217,0.5116360474,10.15218842,2.989134064,0.565595746,1.130484104,0.4457075298
11.148215,0.4034111023,11.53725815,2.528990936,0.2267318964,1.270602107,0.4758198857
11.158214,-1.083746338,11.99006653,2.274071045,-0.0005955847446,1.093960047,0.2974379659
11.168212,-2.966231689,12.00608322,2.086960144,-0.01927979104,0.7944771051,0.08136480302
11.178210,-3.80508728,12.25007584,1.635498962,0.1013507843,0.5689874291,-0.1229004934
11.188209,-4.044738922,12.42191849,1.412911835,0.2096831203,0.4937725663,-0.2913965583
11.198207,-3.675905914,12.32761459,1.811682587,0.1340718716,0.6557004452,-0.3223349154
11.208206,-2.520758057,11.98991684,2.323019257,-0.2855919898,0.7816932797,-0.1910759658
11.218204,-1.648072815,12.10951813,3.196602631,-0.9537056684,0.3770748377,-0.05796095729
11.228202,-1.886676636,14.03376663,4.183799744,-1.427429914,-0.4319612682,-0.1045058221
11.238201,-2.836900635,17.23815308,3.228636017,-1.657930017,-0.9792492986,-0.3484093845
11.248199,-4.928650818,19.17527481,-0.08008346558,-1.668704629,-1.242655873,-0.7990069389
11.258197,-7.337890778,17.69889496,-2.88195694,-1.658646464,-1.742667079,-1.072686434
11.268196,-7.285050659,14.45843353,-2.444117432,-1.830068588,-2.150559664,-0.8984381557
11.278194,-4.26732605,10.82294357,-1.461710358,-2.182801247,-2.172360182,-0.9117852449
11.288193,-1.700763245,7.728877716,-1.047671356,-2.575891018,-2.040987968,-0.9355742335
11.298191,0.02933898926,8.638985138,-0.3438349915,-2.819194794,-1.780954719,-0.9889076352
11.308190,1.023272095,11.40957367,-0.4222718811,-2.886898756,-1.56250751,-1.058909297
11.318189,1.849104767,12.88745041,-0.6589297485,-2.890163422,-1.310649037,-1.008062243
11.328187,2.659968567,13.64786911,-0.9382489014,-2.910167456,-1.068815827,-0.8752864003
11.338186,2.865341492,14.31742676,-1.020727386,-2.868439674,-0.9152500629,-0.6728153229
11.348184,2.750380554,15.34893173,-0.999022522,-2.734887123,-0.8236961365,-0.3950095773
11.358182,2.646346893,16.81483337,-1.066681824,-2.521373987,-0.7835533619,-0.03350712731
11.368181,2.634970551,18.14721268,-1.071621552,-2.267920017,-0.7648233771,0.3354378939
11.378179,2.586920471,18.24196564,-0.9174421692,-2.028989077,-0.7017455697,0.6028645039
11.388178,2.414179688,16.36621628,-0.6743476868,-1.906932116,-0.6426241994,0.7238066196
11.398176,2.291884003,13.7846846,0.136665802,-1.886188269,-0.6068073511,0.6725562215
11.408174,1.982477417,11.25988495,0.712817688,-1.905087709,-0.568218708,0.4955926239
11.418173,1.704355774,9.475146332,0.8108638,-1.933834314,-0.4524613619,0.3730422854
11.428171,2.116598511,8.641380157,0.567020874,-1.968930602,-0.2201295942,0.3552265465
11.438170,2.641856232,7.985144806,0.2189945984,-1.97766602,0.03785801306,0.3640000224
11.448168,2.789898376,7.299420776,-0.2522254944,-1.789949298,-0.05132299662,0.3592143357
11.458166,2.697241058,7.109016724,-0.9189390564,-1.340649843,-0.7736012936,0.3198279738
11.468165,2.650687866,6.78299469,-1.626966705,-0.547690928,-2.331840038,0.2443891764
11.478163,2.207758942,6.873406677,-2.979254608,-0.4198836088,-3.873716354,-0.1786444336
11.488162,-0.5575904846,7.437733154,-0.7134164429,-1.336345792,-4.217508793,-0.6262179613
11.498160,-1.775607605,8.526718597,1.791773987,-2.140357971,-3.539123297,-0.699044168
11.508158,-2.109862518,9.521250458,0.9581575012,-2.431900978,-2.604238987,-0.6601937413
11.518157,-2.409090271,7.761809235,0.4939727783,-2.127882481,-2.1642766,-0.6082793474
11.528155,-2.243534546,5.52396286,-0.6268963623,-1.560504675,-1.975214481,-0.6162559986
11.538153,-1.9972966,3.298540649,-1.205293579,-1.02003634,-1.722482443,-0.5640035868
11.548152,-1.129551086,2.181862793,-1.304836578,-0.5332021713,-1.721327662,-0.5228066444
11.558150,-0.4745132446,1.862127686,-0.8448431396,-0.1376880258,-1.713723421,-0.5879271626
11.568149,0.5912704468,2.011517029,-1.288670197,0.2213369757,-1.703279018,-0.6866217852
11.578147,1.219813385,2.421364746,-1.657054138,0.5366567969,-1.69165802,-0.7429462671
11.588145,1.40647522,2.782863007,-1.821262665,0.7488638759,-1.536153913,-0.7282685041
11.598144,1.52577713,2.806364136,-1.90718399,0.8803809881,-1.254052281,-0.6757979989
11.608142,1.646725616,2.470312958,-1.610500946,1.01649785,-1.02424407,-0.6355930567
11.618141,1.409169617,2.08740921,-1.061742096,1.134437203,-0.8444801569,-0.5908423066
11.628139,0.9044192505,1.856439514,-0.6215075684,1.29068327,-0.7123056054,-0.6011708379
11.638137,0.4528083801,1.798060913,0.02739303589,1.493569374,-0.5463489294,-0.6345246434
11.648136,0.6825805664,2.138453064,0.7911048889,1.70432055,-0.2943428159,-0.6270102262
11.658134,1.391805725,2.994522858,1.656006317,1.866552472,-0.1073374078,-0.6621676087
11.668133,1.416354675,3.985462189,2.965333557,1.926917315,0.05375108123,-0.6954100132
11.678131,1.206191711,5.580245819,4.253105621,1.846205592,0.2565935552,-0.6520813704
11.688129,0.962049408,8.244255981,6.157894592,1.626951814,0.4827414751,-0.5530768037
11.698128,0.7740403748,11.96461945,8.954528961,1.278737068,0.7926915288,-0.4169094265
11.708126,1.232985992,17.22752518,11.31077911,0.8345107436,0.9617393613,-0.2644453049
11.718125,1.314416656,23.82640274,13.39399704,0.3465155959,0.6711272597,-0.2698615193
11.728123,-0.1035845947,27.35486526,14.21938065,-0.2787115276,0.1228537485,-0.5281692147
11.738121,-1.381028137,22.17039642,13.13398773,-0.7901117802,-0.5658349395,-0.5507599115
11.748120,0.7909552002,15.06676849,11.03116058,-0.9115388989,-1.121792078,-0.3936728537
11.758118,2.658621368,9.98199234,8.540639648,-0.7932068706,-1.330297709,-0.2403232604
11.768117,2.747835846,6.879843292,6.683601379,-0.6860963702,-1.208527327,-0.04985744506
11.778115,3.115770721,5.968837738,5.439089355,-0.7154288292,-0.9305608273,0.3038269877
11.788113,5.104085999,7.946525116,4.597988434,-0.8822625875,-0.7264820337,1.023278594
11.798112,8.770411835,14.75272156,4.928800507,-1.053583503,-0.9692427516,1.607184172
11.808110,9.352401581,23.56968658,4.970114594,-1.082662463,-0.6745378375,1.493489027
11.818109,6.183790741,26.27575928,0.7089257812,-1.002318501,0.2343898416,1.150740266
11.828107,3.162024536,21.80320999,-3.813469849,-0.714612484,1.277392864,0.7358264327
11.838105,0.9108558655,14.55228836,-6.239474945,-0.3674366176,2.125485897,0.3195753992
11.848104,0.6215075684,7.910150757,-7.558981018,-0.07573286444,2.683292627,0.2026506662
11.858102,2.857557678,4.314028931,-6.607409821,0.2799038589,2.712351561,0.2512399852
11.868101,4.476890259,2.94632309,-3.824546814,0.6662555337,2.095666647,0.3640717268
11.878099,5.032834167,2.424358521,-0.4742138672,1.187730074,1.516715407,0.5958957076
11.888097,4.731660461,2.875819702,-1.138682098,1.656575322,1.624080181,1.002521038
11.898096,3.15573761,4.20415741,-4.552483063,1.953024149,2.419702053,1.498754025
11.908094,1.0577005,6.00371521,-7.317832489,2.006289721,3.287881613,1.949099898
11.918093,-0.7587721252,8.344248047,-7.497608643,2.006023169,3.590288162,2.224242926
11.928091,-2.007325745,10.88970474,-6.451284485,1.734749079,3.331329823,2.17069149
11.938089,-2.662962341,14.20995026,-4.72836731,1.050723195,2.52752018,1.390948653
11.948088,-3.817212067,17.15522552,-2.554138641,0.3281439245,1.606510997,0.0123878736
11.958086,-5.000351715,17.99453018,-1.367705841,0.2070370615,1.191768885,-1.367196321
11.968085,-5.193899231,16.50078644,-2.048939209,1.328307152,1.236990452,-2.181346416
11.978083,-6.289770355,14.82846405,-2.043550415,3.007782698,1.00543952,-2.351705313
11.988081,-6.730753326,13.14341812,-0.2630030823,4.045407772,0.2936573029,-2.222761393
11.998080,-5.668562164,10.65678909,1.47428421,4.357577801,-0.4529787898,-1.726330638
12.008078,-4.893923035,9.182205505,2.830014954,3.886790514,-0.6729639173,-0.9469161034
12.018076,-3.129242706,7.834258575,4.99271759,2.662863255,-0.01318239234,-0.494505167
12.028075,0.2131567383,5.666017456,7.246131592,1.451824307,0.945943892,-0.534417212
12.038073,2.028132477,4.54350174,7.040159912,0.8420587182,1.681508183,-0.5118727684
12.048072,3.088227997,5.535788269,4.396208038,0.8237378001,2.116224289,-0.2577928603
12.058070,3.200793915,6.814728699,0.4284091187,0.9313658476,2.167800665,-0.1538332403
12.068068,2.544109497,6.922803955,-1.768572235,0.9071246982,1.984249949,-0.1081930548
12.078067,2.430046692,7.368876343,-2.355801086,0.8321463466,1.759911418,-0.01665496454
12.088065,2.159708862,7.279811554,-2.627935181,0.6793906689,1.977354288,0.06149603054
12.098064,1.771715698,7.810907135,-3.237467651,0.6141987443,2.381455183,0.2100914568
12.108062,1.832489319,8.735684052,-3.375031586,0.6915798187,2.401787996,0.2904994786
12.118060,1.481020203,9.618697815,-1.947150879,0.9039258957,2.052280188,0.3256393969
12.128059,0.8204438782,9.276359711,-0.6468049622,1.089726686,1.518993855,0.3678856492
12.138057,-0.2323168945,8.498128052,0.1890568542,1.218070269,1.021217465,0.4435306191
12.148056,-1.082548828,8.283773804,0.7108717346,1.327559471,0.7183777094,0.5223357081
12.158054,-1.654210052,8.247100067,0.7964936829,1.398199558,0.6791338921,0.5515661836
12.168052,-1.611099701,8.058492279,0.5357359314,1.385151148,0.8265571594,0.5334250331
12.178051,-1.120569763,7.87227951,0.3418890381,1.309157968,0.9576303363,0.5693722963
12.188049,-0.7291337585,7.821535034,0.5173242188,1.248389959,1.055864573,0.633764863
12.198048,-0.6162684631,7.848778381,0.5481600952,1.238053203,1.069580913,0.6779777408
12.208046,-0.8390052795,8.088729401,0.9259744263,1.219210505,0.9359862208,0.7134467959
12.218044,-1.362167358,9.021290131,1.597328339,1.121747851,0.752197206,0.709030211
12.228043,-1.923949127,9.951306152,2.014660492,0.9342685342,0.5582959056,0.6435350776
12.238041,-2.211052094,10.24754013,2.322869568,0.7379191518,0.4420615435,0.5505273342
12.248040,-2.137105865,10.4138443,2.28514801,0.578702867,0.4560140967,0.4364050031
12.258038,-2.154020691,10.79944244,2.112407227,0.4304615855,0.6146140099,0.3310470283
12.268036,-2.281106415,11.50058441,1.774260406,0.2790781856,0.879507184,0.2530614138
12.278035,-2.752625885,12.17268677,1.137933655,0.1511519104,1.11278832,0.1554003507
12.288033,-3.651955719,12.2226828,0.6105802917,0.04246511683,0.966639936,-0.04274015874
12.298032,-4.6873526,11.427686,1.492845612,0.02524294704,0.5249381661,-0.2913587093
12.308033,-4.984484711,10.57206528,2.557282104,0.02654336765,0.177381292,-0.4529774487
12.318031,-4.048630829,10.28271698,2.982098694,-0.01112166978,0.1996334642,-0.4751219451
12.328030,-2.215393066,10.49781967,2.957250366,-0.1706687212,0.4240441918,-0.3612435758
12.338028,-0.5574407959,10.99164276,3.097658386,-0.4898760915,0.61439538,-0.1309756637
12.348026,0.003442840576,11.97539703,3.053799591,-0.9699087143,0.5395773053,0.121416375
12.358025,-0.2005828857,13.91251877,2.826721802,-1.359695435,-0.295788914,0.2408629209
12.368023,-0.1167572021,16.89117462,2.764600983,-1.635425329,-1.266121984,0.1282849759
12.378022,-1.178798676,19.98104919,1.137783966,-1.870581508,-1.670141459,-0.1794428527
12.388020,-3.349285126,19.26463898,-1.669627991,-2.122236729,-1.768429875,-0.6056287885
12.398018,-4.812492371,14.9034581,-2.045047302,-2.406455994,-1.756934166,-0.9561545253
12.408017,-4.824018402,11.16558105,-1.817221069,-2.600532055,-1.715864182,-1.016740561
12.418015,-3.8273909,9.55493042,-2.843486938,-2.883685827,-1.361526847,-1.051032305
12.428014,-1.72591095,9.392967224,-2.733765106,-3.07915616,-0.8816934228,-1.187004685
12.438012,0.5611830139,11.72661438,-2.322270813,-3.073963165,-0.6108649969,-1.249166727
12.448010,2.309547272,14.05023239,-2.015408936,-3.010623932,-0.4664172828,-1.186450958
12.458009,3.467988281,15.129039,-1.384620667,-2.954374075,-0.4179435968,-1.042369246
12.468007,3.664978638,15.54292831,-0.6676116943,-2.905772209,-0.528236866,-0.9034952521
12.478006,3.077001343,16.24421997,0.08592132568,-2.857961416,-0.7819712162,-0.7510093451
12.488004,2.44426712,17.38080643,0.5767506409,-2.731488705,-1.049727917,-0.4631810486
12.498002,2.364632721,18.61753464,0.6406677246,-2.528444529,-1.208487749,-0.03354919702
12.508001,2.646945648,19.07483368,0.5813909912,-2.267108679,-1.220163345,0.4789886773
12.517999,2.878963165,18.13314194,0.523611145,-2.053205967,-1.191481352,0.8593104482
12.527997,2.613565063,14.92022324,0.9473799133,-1.924423575,-1.159528732,0.9669796228
12.537996,1.681154022,11.40867554,1.381477203,-1.923029542,-1.15304327,0.8750796914
12.547994,0.9942324829,8.890462189,1.620380402,-2.009284973,-0.9811702371,0.7242155671
12.557993,0.9991722107,7.193590851,1.148711243,-2.144756079,-0.5805842876,0.4994309843
12.567991,1.063538361,5.781577148,0.1582209778,-2.052768707,-0.2651131749,0.186107412
12.577989,0.8074209595,5.497767334,-1.804647217,-1.316039085,-1.094512939,-0.2308103591
12.587988,0.5257067871,6.517895966,-3.961811371,-0.6707825065,-2.717453957,-0.4844245315
12.597986,0.3679348755,7.973918152,-3.197949829,-1.190732002,-3.731619835,-0.6920629144
12.607985,-0.8095166016,9.124575348,-0.113613739,-2.15828681,-3.611124516,-0.7802247405
12.617983,-1.328936462,10.22583527,0.02574645996,-2.631289959,-3.097027063,-0.8010145426
12.627981,-1.906734924,9.93753479,-1.024469604,-2.548192978,-2.604429722,-0.8687981367
12.637980,-1.982627106,8.225844269,-2.053878937,-2.206153154,-2.517709017,-1.035574198
12.647978,-2.00433197,6.452332306,-1.772464142,-1.847414255,-2.553735733,-1.110672712
12.657977,-1.253643036,4.893623657,-1.382525024,-1.464227438,-2.389084101,-0.9065496922
12.667975,-0.3324586487,3.582350464,-0.8692424011,-1.063027263,-2.373052835,-0.7770271301
12.677973,0.08637039185,2.537672882,-0.7060816956,-0.6641536951,-2.352697849,-0.7546115518
12.687972,0.9202862549,2.129322052,-1.390757904,-0.2074923813,-2.293418884,-0.7601341605
12.697970,1.319206696,2.290536804,-1.825903015,0.2228710204,-2.194424629,-0.7564840317
12.707969,1.525926819,2.548300781,-1.506916351,0.6013376713,-1.917422771,-0.7300412655
12.717967,1.523681488,2.406246185,-1.188229065,0.9344335794,-1.486971498,-0.7456668019
12.727965,0.8940907288,1.950294342,-0.9692344666,1.21099484,-1.016013265,-0.7891610265
12.737964,0.2601589966,1.667831726,-0.6526428223,1.463934064,-0.629994452,-0.841585815
12.747962,-0.01347198486,1.631607056,-0.04595443726,1.749610305,-0.3312386274,-0.8947760463
12.757961,0.1083746338,1.951042786,0.5203179932,2.024759769,-0.09607673436,-0.9115080237
12.767959,0.5242098999,2.639610901,1.199755096,2.227640629,0.09263113141,-0.9148926139
12.777957,0.8214916992,3.624263306,2.205513611,2.281449318,0.3556912541,-0.8504658937
12.787956,0.9749226379,4.632267151,3.520079956,2.167642117,0.5767698288,-0.7923946381
12.797954,0.7182064819,6.009104004,5.440586243,1.899658442,0.6864389181,-0.7245004177
12.807953,0.8554710388,8.828640747,7.824828186,1.526527762,0.548391819,-0.4868258238
12.817951,2.146386566,13.29654968,10.51638107,1.201353073,0.1947580427,-0.173849836
12.827949,3.04691391,18.54867783,12.27866638,0.949372232,-0.09157065302,-0.02496954054
12.837948,2.602488098,23.55157425,12.48433868,0.5063912272,-0.4106329381,-0.2349905819
12.847946,-0.2709365845,24.07802948,12.2690863,-0.1101774052,-0.8284869194,-0.5205179453
12.857945,-2.047442322,19.33903427,10.64556244,-0.580509305,-1.054550052,-0.5952013731
12.867943,-0.4911286926,14.10022842,8.405021667,-0.717756927,-1.000905395,-0.4772998095
12.877941,1.356628876,10.14515305,7.498656464,-0.657014668,-0.7332103252,-0.3174715936
12.887940,1.737137604,7.550448761,7.085515594,-0.6016662121,-0.3323515952,-0.09558553994
12.897938,2.960244141,6.183790741,6.580465851,-0.5587344766,-0.1363084614,0.2017071396
12.907937,4.998106384,6.358627167,5.409450989,-0.5940994024,-0.2274050862,0.5810701251
12.917935,7.742200012,9.220974884,4.789589996,-0.7576445937,-0.475132823,0.9391683936
12.927933,9.065897369,14.2969194,4.723577271,-0.9539217353,-0.6698597074,1.193489313
12.937932,7.478598175,18.76048737,3.758085022,-0.9257355332,-0.01008408517,1.217409968
12.947930,4.286635895,19.18814804,-1.388961639,-0.7012227774,1.226610422,1.041474342
12.957929,2.305655365,16.19856491,-5.286706238,-0.2392105758,2.321409464,0.7827695608
12.967927,1.652713165,12.86350021,-6.312822418,0.1368101984,2.715290308,0.5785450339
12.977925,1.702260132,9.628277893,-5.281616821,0.3376936316,2.409135342,0.5514757633
12.987924,2.787353668,7.928263092,-2.246228943,0.5387654901,1.6006248,0.5923717618
12.997922,3.817212067,7.443720703,0.4803511047,0.7988595366,0.9166325927,0.7014464736
13.007920,3.757486267,7.200775909,0.8144563293,1.093890548,0.9146056771,0.8800159097
13.017919,2.252815247,6.879244537,-1.596430206,1.4421134,1.430689096,1.0457654
13.027917,0.2598596191,6.36057312,-4.567901001,1.788177252,2.120097399,1.24354291
13.037916,-0.9999206543,6.876699829,-6.053262177,1.971725106,2.688550472,1.496513128
13.047914,-1.322948914,7.998167725,-5.58249115,1.983374476,3.003316641,1.664100051
13.057912,-1.338666229,8.118367767,-4.284689941,1.778539896,3.091214895,1.779614687
13.067911,-0.9578581238,7.925868073,-2.973566437,1.37645793,3.047776461,1.734890819
13.077909,-1.393152924,9.148076477,-2.103725281,0.8009949327,2.561436892,1.265312314
13.087908,-2.670446777,13.36420898,-1.448088684,0.1715057045,1.662124753,0.2005137056
13.097906,-4.133354645,18.24690536,-0.8843609619,-0.08372884989,0.9895521998,-1.137281656
13.107904,-5.199587402,18.04677155,-1.567240906,0.75534904,0.9354149103,-1.948580861
13.117903,-5.817502441,14.3885289,-1.271755371,2.335795641,0.8452533484,-1.84958899
13.127901,-5.975873108,11.37514526,1.007255402,3.386959076,0.3982968926,-1.53605628
13.137900,-5.204676819,8.846603394,2.022144928,3.742015362,-0.05885441229,-1.070510626
13.147898,-3.633693695,8.043673096,2.775677948,3.267914057,0.1796295196,-0.7699332833
13.157896,-0.8002359009,7.695946198,3.597019958,2.389752388,0.7779681087,-0.6984366775
13.167895,1.855990448,7.295678558,4.517455902,1.614287138,1.307791233,-0.5245402455
13.177893,3.791465607,7.478149109,4.106260986,1.275529265,1.297469378,-0.262324512
13.187892,3.965553589,7.633825378,2.120340729,1.172358394,1.096697688,-0.07681404799
13.197890,3.538042603,7.498207397,-0.2077679443,1.130407453,0.799434185,0.03164887801
13.207888,2.639012146,7.431146851,-1.709145813,0.9898609519,0.7129368782,0.1002737433
13.217887,1.157842255,7.366780701,-2.246228943,0.8796024323,0.9903696775,0.1873241663
13.227885,-0.04311035156,7.072642365,-2.624192963,0.8162018657,1.607596397,0.2306876183
13.237883,-0.6894662476,7.635921021,-2.871179352,0.865432024,2.220136404,0.2582786977
13.247882,-0.873583374,8.739875336,-2.465822296,0.9671336412,2.365115166,0.1641751081
13.257880,-1.251547394,9.167835388,-0.863404541,1.096832156,2.045334816,0.09340379387
13.267879,-1.121767273,9.38877594,0.3414399719,1.204806805,1.529817462,0.1137540713
13.277877,-0.7601193237,9.755962372,0.9919871521,1.29147172,0.988761127,0.1574225277
13.287875,-0.6607260132,9.200018463,1.409468994,1.302081704,0.7527110577,0.1678493321
13.297874,-0.1167572021,8.18587738,1.186283112,1.26292932,0.9227659106,0.172406137
13.307868,0.8448431396,7.507637787,0.4436773682,1.241931438,1.316768527,0.2563931644
13.317867,1.624721375,7.195237427,-0.4710704041,1.184277296,1.525466681,0.3768006861
13.327865,1.905238037,6.897955627,-0.07768844604,1.128052354,1.408700943,0.4984664023
13.337863,1.842518463,7.133565674,0.885408783,1.126480341,1.125151992,0.5993897915
13.347862,1.676214294,7.700885925,1.419647827,1.160341859,0.9058915377,0.7120140791
13.357860,1.113235016,8.951984253,1.52697464,1.135212183,0.874026835,0.7914797068
13.367859,0.08277786255,10.27882507,1.571282501,1.008988738,0.9106330276,0.7931383252
13.377857,-0.9397457886,10.89120163,1.843865662,0.8014037013,0.9453708529,0.7241859436
13.387855,-1.783391418,10.99778,2.146386566,0.5219654441,0.9626345634,0.6163601875
13.397854,-2.48872467,11.03175934,2.387984161,0.2581130862,1.070820451,0.5272305608
13.407852,-2.856060791,11.28682892,2.18216217,0.09286954254,1.198678374,0.4099624753
13.417851,-3.547323303,11.19312378,1.822759552,0.04548218101,1.225589633,0.2515615523
13.427849,-4.52583847,11.00227066,1.520538025,0.1276305765,1.086221933,0.02233448066
13.437847,-5.172044678,10.63358734,1.370998993,0.2402458042,0.7096155286,-0.2092585415
13.447846,-5.205874329,10.38240967,1.782642975,0.3221246898,0.3211644292,-0.2851439714
13.457844,-4.441414032,10.52760773,1.91421936,0.2571399212,-0.01898873597,-0.2738853097
13.467842,-3.680695953,10.6778952,3.070864105,0.001400559209,-0.1511784643,-0.2005809844
13.477841,-2.945574646,11.21767273,4.041894836,-0.4039842188,0.0563285239,-0.065773651
13.487839,-2.518213348,12.05488174,3.549269257,-0.8616018295,0.3509939611,0.1035828888
13.497838,-2.344424744,13.52781876,2.628234558,-1.081147552,0.09187625349,0.06819012761
13.507836,-2.555186462,15.73497894,2.262095947,-1.157649517,-0.7016573548,-0.1675997525
13.517834,-3.086282043,19.68571335,1.493294678,-1.307637811,-1.629063606,-0.3104604781
13.527833,-2.992726593,21.24217667,0.0940045166,-1.549764752,-2.350801229,-0.5392127037
13.537831,-3.897145844,17.51732254,-0.2915936279,-1.913003445,-2.660498381,-0.7802447081
13.547830,-4.28723465,13.45971039,-0.07364685059,-2.37348175,-2.357045174,-0.8361181021
13.557828,-3.525618439,10.81441132,-0.6451583862,-2.818748713,-1.675774574,-0.8695070744
13.567826,-2.790197754,9.410780182,-1.150357819,-3.008561134,-1.089442372,-0.9797600508
13.577825,-1.563798065,10.38570282,-1.479223938,-2.996694326,-0.7981918454,-1.125624061
13.587823,0.699944458,12.6805806,-1.76453064,-3.000407934,-0.6290137172,-1.210071325
13.597822,2.394720154,13.81761612,-1.626218262,-3.073584557,-0.5343710184,-1.22307992
13.607820,3.008144531,14.38284073,-1.028810577,-3.138029337,-0.5807344913,-1.186773539
13.617818,2.897225189,15.28711029,-0.495769043,-3.103184938,-0.8035554886,-1.096847653
13.627817,2.734214172,17.00853058,-0.07604187012,-2.951338291,-1.09794426,-0.8004460931
13.637815,3.026256866,18.74327316,0.09999206543,-2.697116613,-1.335510015,-0.2578345537
13.647813,3.621119843,19.4806398,0.2001338196,-2.428101301,-1.502895713,0.3408856094
13.657812,3.683090973,18.33567078,0.5680686951,-2.216228247,-1.513942242,0.7511437535
13.667810,3.127895508,15.21376282,0.6451583862,-2.107880116,-1.424831748,0.9778392315
13.677809,2.692600708,12.29917374,0.7870632935,-2.083735228,-1.285403967,1.041270256
13.687807,2.363135834,10.10937744,0.6944059753,-2.088973284,-1.073935866,1.044102788
13.697805,2.471510468,8.433462524,0.2719844055,-2.112433672,-0.7905130386,0.8469308615
13.707804,1.874551849,6.785389709,-0.2146536255,-1.681785226,-0.8844491243,0.4059060514
13.717802,1.046174469,6.17690506,-2.648891602,-0.7968088388,-1.810848475,-0.04230040684
13.727801,1.362616425,7.239545288,-4.441563721,-0.2277067751,-3.284287453,-0.4091127515
13.737799,0.6415658569,7.868237915,-2.710263977,-1.087539315,-3.546193123,-0.8338525891
13.747797,-1.101259918,8.289162598,0.5450166321,-2.134273767,-3.010396004,-0.9605844617
13.757796,-1.217418365,9.154213715,-0.08786727905,-2.700345516,-2.285865545,-0.8598583341
13.767794,-1.493294678,9.307794342,-0.4474195862,-2.713356256,-2.140900373,-0.8929523826
13.777793,-1.721869354,8.324638824,-0.9157955933,-2.417723894,-2.530504465,-1.072950482
13.787791,-2.070793762,6.769522705,-1.683998108,-2.188344955,-2.425116539,-0.9681901932
13.797789,-1.21577179,5.080734558,-1.936223602,-1.896852374,-2.611793041,-0.6472142935
13.807788,-1.129551086,3.16397049,-0.5016069031,-1.410760522,-2.811394453,-0.5408505797
13.817786,-0.8075706482,2.039658508,-0.7048841858,-0.8271781802,-2.782714367,-0.6478785872
13.827785,0.2505789185,1.922601929,-1.548380127,-0.2742619514,-2.787585974,-0.6861197352
13.837783,1.327439575,2.003733215,-1.660047913,0.2035973817,-2.719423294,-0.6381322742
